acceleration_x,acceleration_y,acceleration_z,gyroscope_x,gyroscope_y,gyroscope_z,timestamp,label
4343,219,162,16,30,37,2024-01-29 16:28:44,0.0
4308,363,213,-13,55,41,2024-01-29 16:28:44,0.0
4350,206,189,-75,24,13,2024-01-29 16:28:44,0.0
4284,318,195,-28,5,18,2024-01-29 16:28:44,0.0
4377,230,281,-56,-14,28,2024-01-29 16:28:44,0.0
4313,247,234,-57,-12,15,2024-01-29 16:28:44,0.0
4291,199,286,-79,-26,12,2024-01-29 16:28:44,0.0
4338,168,246,-69,12,0,2024-01-29 16:28:44,0.0
4338,249,284,-73,-19,18,2024-01-29 16:28:44,0.0
4367,284,230,-97,-61,14,2024-01-29 16:28:44,0.0
4389,251,248,-80,-80,15,2024-01-29 16:28:44,0.0
4446,252,137,-196,-17,22,2024-01-29 16:28:45,0.0
4316,246,129,-177,5,2,2024-01-29 16:28:45,0.0
4345,270,203,-269,74,8,2024-01-29 16:28:45,0.0
4316,163,269,-300,3,18,2024-01-29 16:28:45,0.0
4403,278,280,-286,105,36,2024-01-29 16:28:45,0.0
4402,68,197,-279,119,31,2024-01-29 16:28:45,0.0
4347,587,332,-339,87,71,2024-01-29 16:28:45,0.0
4098,187,143,-445,35,97,2024-01-29 16:28:45,0.0
4281,506,212,-634,-103,178,2024-01-29 16:28:45,0.0
3909,209,-42,-761,-247,200,2024-01-29 16:28:45,0.0
3987,-199,-202,-587,-175,178,2024-01-29 16:28:45,0.0
3541,-46,229,-565,-17,234,2024-01-29 16:28:46,0.0
3688,217,-48,-583,34,169,2024-01-29 16:28:47,0.0
2956,-586,132,-483,-16,148,2024-01-29 16:28:47,0.0
3213,-314,43,-609,166,42,2024-01-29 16:28:47,0.0
4008,-741,429,18,338,113,2024-01-29 16:28:47,0.0
3996,-210,-12,-380,474,4,2024-01-29 16:28:47,0.0
4477,-593,203,-70,654,58,2024-01-29 16:28:47,0.0
4264,-637,391,48,935,5,2024-01-29 16:28:47,0.0
4340,-228,438,249,1079,57,2024-01-29 16:28:47,0.0
4395,-22,809,86,1216,-22,2024-01-29 16:28:47,0.0
-760,-257,4487,262,-998,6,2024-01-29 16:28:47,0.0
277,643,4058,65,-375,-35,2024-01-29 16:28:47,0.0
145,205,4448,59,-292,20,2024-01-29 16:28:47,0.0
-27,471,4628,40,-401,10,2024-01-29 16:28:47,0.0
201,286,3730,-24,-275,63,2024-01-29 16:28:47,0.0
337,442,4127,-80,-285,60,2024-01-29 16:28:47,0.0
362,131,4373,-64,-234,30,2024-01-29 16:28:47,0.0
240,72,4146,34,-53,33,2024-01-29 16:28:47,0.0
323,330,4265,-31,54,97,2024-01-29 16:28:47,0.0
-127,83,4433,-9,-30,62,2024-01-29 16:28:47,0.0
-386,453,3558,21,7,109,2024-01-29 16:28:47,0.0
141,585,4836,-85,-196,50,2024-01-29 16:28:47,0.0
164,44,3707,-76,181,68,2024-01-29 16:28:47,0.0
226,467,4962,-93,286,145,2024-01-29 16:28:48,0.0
-971,124,3961,-223,-318,96,2024-01-29 16:28:48,0.0
-874,189,4174,-53,-686,116,2024-01-29 16:28:48,0.0
-75,333,4361,-158,-1029,149,2024-01-29 16:28:48,0.0
729,444,3925,-266,-952,74,2024-01-29 16:28:48,0.0
785,189,4832,-300,-1191,134,2024-01-29 16:28:48,0.0
615,186,4591,-445,-1434,-43,2024-01-29 16:28:48,0.0
1301,-269,3088,-462,-901,-57,2024-01-29 16:28:48,0.0
1871,-100,3626,-396,-830,77,2024-01-29 16:28:48,0.0
1809,-150,5203,-546,-1096,65,2024-01-29 16:28:48,0.0
2113,-820,3193,-411,-1022,171,2024-01-29 16:28:48,0.0
2350,-150,3184,-240,-922,63,2024-01-29 16:28:48,0.0
2871,-991,3534,-79,-666,16,2024-01-29 16:28:48,0.0
2578,-722,3330,69,-904,-34,2024-01-29 16:28:48,0.0
2917,-186,3056,57,-819,3,2024-01-29 16:28:48,0.0
2748,-764,2805,-53,-531,-134,2024-01-29 16:28:48,0.0
3052,-245,3523,34,-499,-75,2024-01-29 16:28:48,0.0
2893,-398,3509,-110,-466,-205,2024-01-29 16:28:48,0.0
3094,-382,2407,-126,-666,-244,2024-01-29 16:28:49,0.0
3036,-638,2609,35,-958,-85,2024-01-29 16:28:49,0.0
3722,-87,2911,191,-411,-19,2024-01-29 16:28:49,0.0
3082,285,2957,-144,-451,-102,2024-01-29 16:28:49,0.0
3974,-308,2962,-56,-627,58,2024-01-29 16:28:49,0.0
3143,-221,1548,100,-903,-49,2024-01-29 16:28:49,0.0
3075,-339,2777,-10,-1157,102,2024-01-29 16:28:49,0.0
3991,-431,1518,147,-1337,22,2024-01-29 16:28:49,0.0
3434,-391,1750,75,-1439,-3,2024-01-29 16:28:49,0.0
3876,-877,1289,123,-1451,46,2024-01-29 16:28:49,0.0
3757,-68,1769,-72,-1534,-69,2024-01-29 16:28:49,0.0
4422,-258,-198,-307,-966,-172,2024-01-29 16:28:49,0.0
5016,-187,13,-274,-1613,54,2024-01-29 16:28:49,0.0
4942,388,-794,-342,-1670,221,2024-01-29 16:28:49,0.0
5272,-36,-1707,-458,-1976,443,2024-01-29 16:28:49,0.0
5509,298,-3171,-476,-1974,673,2024-01-29 16:28:49,0.0
4038,464,-2285,-910,-991,689,2024-01-29 16:28:49,0.0
4615,-543,-2635,-1063,-800,600,2024-01-29 16:28:49,0.0
4023,-762,-2491,-615,14,576,2024-01-29 16:28:50,0.0
3955,28,-2445,-826,-208,384,2024-01-29 16:28:50,0.0
4042,-269,-2541,-675,-27,223,2024-01-29 16:28:50,0.0
4042,-233,-2430,-518,143,184,2024-01-29 16:28:50,0.0
4191,-152,-2101,-396,-177,310,2024-01-29 16:28:50,0.0
4143,583,-1835,-282,25,108,2024-01-29 16:28:50,0.0
4362,-46,-1878,-89,96,116,2024-01-29 16:28:50,0.0
4157,-16,-1941,80,594,-303,2024-01-29 16:28:50,0.0
3210,-1384,-1409,311,652,-441,2024-01-29 16:28:50,0.0
1124,210,-1710,329,690,-223,2024-01-29 16:28:50,0.0
2682,-860,-1557,-470,698,-5,2024-01-29 16:28:50,0.0
3973,-611,-930,143,943,180,2024-01-29 16:28:50,0.0
3921,-393,-1623,158,556,120,2024-01-29 16:28:50,0.0
4079,-1059,-1200,384,655,-104,2024-01-29 16:28:50,0.0
4458,134,-966,631,745,-200,2024-01-29 16:28:50,0.0
3697,-93,-779,824,434,-4,2024-01-29 16:28:50,0.0
3724,-927,-1249,1038,210,-119,2024-01-29 16:28:50,0.0
2792,-587,-847,1309,-229,180,2024-01-29 16:28:51,0.0
5028,-1205,-683,1322,-2,-5,2024-01-29 16:28:51,
3478,514,-465,847,94,61,2024-01-29 16:28:51,0.0
4498,-1434,-188,847,197,124,2024-01-29 16:28:51,0.0
4931,-367,167,422,127,126,2024-01-29 16:28:51,0.0
4921,-793,-2,215,192,147,2024-01-29 16:28:51,0.0
4649,-1167,-309,177,7,150,2024-01-29 16:28:51,0.0
4109,-962,8,153,202,263,2024-01-29 16:28:51,0.0
3575,-1085,164,238,71,54,2024-01-29 16:28:51,0.0
3560,-1097,117,228,-55,134,2024-01-29 16:28:51,0.0
3924,-1270,-12,257,-129,-36,2024-01-29 16:28:51,0.0
4493,-741,137,-137,3,-86,2024-01-29 16:28:51,0.0
4506,-914,16,-320,47,-242,2024-01-29 16:28:51,0.0
4598,-895,260,-434,188,-214,2024-01-29 16:28:51,0.0
4169,-518,-5,-627,181,-279,2024-01-29 16:28:51,0.0
4489,-1201,147,-623,227,-249,2024-01-29 16:28:51,0.0
3908,-124,6,-727,164,-239,2024-01-29 16:28:51,0.0
4764,-1176,-21,-580,479,-260,2024-01-29 16:28:52,0.0
3149,575,-574,-1093,202,-217,2024-01-29 16:28:52,0.0
3315,307,-117,-1027,-186,-285,2024-01-29 16:28:52,0.0
5295,-301,156,-162,16,-232,2024-01-29 16:28:52,0.0
5959,450,519,30,119,-93,2024-01-29 16:28:52,0.0
4949,-104,621,228,362,-101,2024-01-29 16:28:52,0.0
3784,612,989,273,183,-78,2024-01-29 16:28:52,0.0
5045,-60,409,-89,22,-155,2024-01-29 16:28:52,0.0
4306,-277,148,216,110,-140,2024-01-29 16:28:52,0.0
4176,-403,-75,157,183,-15,2024-01-29 16:28:52,0.0
3739,-358,106,228,27,92,2024-01-29 16:28:52,0.0
4131,122,254,122,175,62,2024-01-29 16:28:52,0.0
3868,-160,510,-64,214,17,2024-01-29 16:28:52,0.0
4425,96,260,-196,-110,34,2024-01-29 16:28:52,0.0
4731,-450,295,5,-22,41,2024-01-29 16:28:52,0.0
4583,142,456,20,60,26,2024-01-29 16:28:52,0.0
4380,-272,383,26,128,56,2024-01-29 16:28:52,0.0
4148,21,419,-62,29,25,2024-01-29 16:28:52,0.0
4176,-109,227,-62,155,30,2024-01-29 16:28:53,0.0
3818,-201,390,-50,72,65,2024-01-29 16:28:53,0.0
4337,-91,329,44,235,89,2024-01-29 16:28:53,0.0
3832,-285,616,93,395,61,2024-01-29 16:28:53,0.0
4100,-16,767,161,605,93,2024-01-29 16:28:53,0.0
3699,-444,336,102,334,22,2024-01-29 16:28:53,0.0
3281,86,460,87,931,-21,2024-01-29 16:28:53,0.0
4115,-41,999,-221,1041,-38,2024-01-29 16:28:53,0.0
4054,-371,1002,25,942,-99,2024-01-29 16:28:53,0.0
3640,-217,1364,-261,834,-67,2024-01-29 16:28:53,0.0
4157,-269,709,-237,726,9,2024-01-29 16:28:53,0.0
3319,-444,1037,-202,963,-85,2024-01-29 16:28:53,0.0
2401,-82,1043,-352,1205,-113,2024-01-29 16:28:53,0.0
3240,-174,1412,-285,981,-18,2024-01-29 16:28:53,0.0
2845,-312,1857,-506,1511,-34,2024-01-29 16:28:53,0.0
3068,-367,1116,-250,1880,190,2024-01-29 16:28:53,0.0
2719,-337,871,-277,2202,84,2024-01-29 16:28:53,0.0
1932,-114,627,-125,3259,359,2024-01-29 16:28:54,0.0
-684,339,675,-452,3371,288,2024-01-29 16:28:54,0.0
-4612,-957,19871,-202,2431,274,2024-01-29 16:28:54,0.0
-13171,-6635,14926,-183,162,222,2024-01-29 16:28:54,0.0
-2253,2448,2617,949,-216,-399,2024-01-29 16:28:54,0.0
2258,-440,1474,168,-446,-204,2024-01-29 16:28:54,0.0
-1366,-747,2932,-7,847,359,2024-01-29 16:28:54,0.0
-1472,601,3053,20,-1515,-123,2024-01-29 16:28:54,0.0
1651,-379,4630,-353,-163,18,2024-01-29 16:28:54,0.0
-748,-1168,5089,-211,-228,255,2024-01-29 16:28:54,0.0
-202,-249,3846,-91,-247,-110,2024-01-29 16:28:54,0.0
272,-478,3873,-165,-26,-14,2024-01-29 16:28:54,0.0
-206,-1119,4120,-100,-114,20,2024-01-29 16:28:54,0.0
-269,-293,4333,-38,-31,-41,2024-01-29 16:28:54,0.0
-101,-897,4191,-102,-57,-115,2024-01-29 16:28:54,0.0
-378,-432,4031,-32,24,4,2024-01-29 16:28:54,0.0
11,-520,4105,-16,-118,-36,2024-01-29 16:28:54,0.0
-359,-500,4375,-63,-22,-16,2024-01-29 16:28:55,0.0
-100,-646,4168,-54,-90,-21,2024-01-29 16:28:55,0.0
-64,-646,4145,-17,44,19,2024-01-29 16:28:55,0.0
-392,-577,4233,-61,-111,6,2024-01-29 16:28:55,0.0
17,-539,4246,-22,-74,-16,2024-01-29 16:28:55,0.0
-343,-558,4092,-17,-17,-10,2024-01-29 16:28:55,0.0
-97,-546,4326,14,-91,23,2024-01-29 16:28:55,0.0
-215,-611,4095,-21,37,-1,2024-01-29 16:28:55,0.0
-17,-502,4227,-22,-67,23,2024-01-29 16:28:55,0.0
-202,-574,4119,-12,-17,-1,2024-01-29 16:28:55,0.0
-158,-494,4202,-11,-48,19,2024-01-29 16:28:55,0.0
-114,-527,4203,-47,-71,3,2024-01-29 16:28:55,0.0
-237,-544,4204,-58,10,-6,2024-01-29 16:28:55,0.0
-24,-572,4201,-30,-100,19,2024-01-29 16:28:55,0.0
-287,-420,4119,-43,32,12,2024-01-29 16:28:55,0.0
-106,-612,4160,-25,-48,2,2024-01-29 16:28:55,0.0
-90,-498,4177,-45,-96,16,2024-01-29 16:28:55,0.0
-144,-505,4389,-46,-40,10,2024-01-29 16:28:55,0.0
-105,-549,4169,-59,-22,6,2024-01-29 16:28:55,0.0
-131,-515,4212,-43,-61,6,2024-01-29 16:28:56,0.0
-105,-538,4217,-42,-17,19,2024-01-29 16:28:56,0.0
-148,-451,4099,-62,40,29,2024-01-29 16:28:56,0.0
-296,-858,3955,-86,297,39,2024-01-29 16:28:56,0.0
-336,-329,4241,-1,-8,86,2024-01-29 16:28:56,0.0
-57,-503,3727,-166,88,45,2024-01-29 16:28:56,0.0
-565,-249,4617,-86,-133,32,2024-01-29 16:28:56,0.0
-28,-607,4140,-184,-33,-29,2024-01-29 16:28:56,0.0
31,-750,4318,-113,-33,-1,2024-01-29 16:28:56,0.0
-171,-791,4103,-131,85,-5,2024-01-29 16:28:56,0.0
-184,-842,4042,-49,-4,-52,2024-01-29 16:28:56,0.0
-284,-591,4131,-79,-39,-36,2024-01-29 16:28:56,0.0
-171,-682,4051,-36,19,-45,2024-01-29 16:28:56,0.0
-448,-590,4215,-9,11,-5,2024-01-29 16:28:56,
-92,-670,4025,-12,61,-13,2024-01-29 16:28:56,0.0
-342,-841,4327,34,-21,57,2024-01-29 16:28:56,0.0
-178,-658,3966,54,84,52,2024-01-29 16:28:56,0.0
-77,-608,4284,-46,221,-37,2024-01-29 16:28:57,0.0
-719,-470,4193,63,350,-78,2024-01-29 16:28:57,0.0
-1021,-672,3952,33,-18,-88,2024-01-29 16:28:57,0.0
-1419,-731,4844,132,-432,-82,2024-01-29 16:28:57,0.0
-808,-331,3512,-153,-421,-176,2024-01-29 16:28:57,0.0
-691,-1205,4242,-250,-1771,-154,2024-01-29 16:28:57,0.0
413,-150,4791,-279,-1954,16,2024-01-29 16:28:57,0.0
711,-195,4421,-424,-1910,-194,2024-01-29 16:28:57,0.0
1007,-1222,4798,-92,-1596,-151,2024-01-29 16:28:59,0.0
1579,-987,3487,295,-1276,-45,2024-01-29 16:28:59,0.0
1602,-239,3883,-74,-1445,-23,2024-01-29 16:28:59,0.0
2139,-1266,3213,69,-1138,-62,2024-01-29 16:28:59,0.0
2682,-1157,2924,236,-1015,-127,2024-01-29 16:28:59,0.0
2973,-497,3042,498,-1099,87,2024-01-29 16:28:59,0.0
3099,-716,2813,332,-904,107,2024-01-29 16:28:59,0.0
2760,-289,3645,570,-1165,102,2024-01-29 16:28:59,0.0
2573,-666,3349,552,-890,193,2024-01-29 16:28:59,0.0
3946,-183,-1103,299,223,-480,2024-01-29 16:28:59,0.0
4288,-675,-1036,476,133,-658,2024-01-29 16:28:59,0.0
2576,-456,-1403,458,367,-406,2024-01-29 16:28:59,0.0
3328,-884,-1467,525,415,-254,2024-01-29 16:28:59,0.0
3795,667,-685,108,396,-100,2024-01-29 16:29:00,0.0
4322,-353,-859,235,577,12,2024-01-29 16:29:00,0.0
3462,196,-7,257,668,-52,2024-01-29 16:29:00,0.0
3297,-478,-252,651,547,81,2024-01-29 16:29:00,0.0
3521,100,-148,469,554,-2,2024-01-29 16:29:00,0.0
3966,194,398,906,485,227,2024-01-29 16:29:00,0.0
4436,-483,-406,743,27,321,2024-01-29 16:29:00,0.0
4509,20,-150,465,-76,319,2024-01-29 16:29:00,0.0
4326,-630,127,586,-136,265,2024-01-29 16:29:00,0.0
3557,-556,559,581,113,138,2024-01-29 16:29:00,0.0
3882,-148,466,527,-404,195,2024-01-29 16:29:00,0.0
4052,-226,408,174,-423,129,2024-01-29 16:29:00,0.0
5155,-887,320,-31,41,143,2024-01-29 16:29:00,0.0
4375,-718,689,-274,16,133,2024-01-29 16:29:00,0.0
4677,-631,501,-191,-32,19,2024-01-29 16:29:00,0.0
4184,-280,608,-464,90,-115,2024-01-29 16:29:00,0.0
4150,-970,177,-405,-221,-149,2024-01-29 16:29:01,0.0
4466,-987,304,-96,-14,-5,2024-01-29 16:29:01,0.0
4212,86,41,-342,27,-14,2024-01-29 16:29:01,0.0
3931,-158,289,-599,-116,-135,2024-01-29 16:29:01,0.0
4436,-718,490,-445,-35,-193,2024-01-29 16:29:01,0.0
4511,-150,230,-361,-124,-97,2024-01-29 16:29:01,0.0
4907,-178,-32,-368,83,-146,2024-01-29 16:29:01,0.0
4378,-223,147,-347,10,-74,2024-01-29 16:29:01,0.0
4331,-64,-234,-468,51,-31,2024-01-29 16:29:01,0.0
4233,-232,37,-434,0,-46,2024-01-29 16:29:01,0.0
4178,-245,-18,-371,-111,-15,2024-01-29 16:29:01,0.0
4009,-463,-50,-234,-80,19,2024-01-29 16:29:01,0.0
4285,-2,22,-263,5,50,2024-01-29 16:29:01,0.0
4421,-125,60,-288,75,15,2024-01-29 16:29:01,0.0
4219,-272,51,-369,103,31,2024-01-29 16:29:01,0.0
4335,67,126,-463,100,-11,2024-01-29 16:29:01,0.0
4343,-378,163,-402,148,-1,2024-01-29 16:29:01,0.0
4153,-144,154,-314,269,24,2024-01-29 16:29:02,0.0
4534,-209,428,-415,123,-54,2024-01-29 16:29:02,0.0
4286,-179,316,-377,79,-47,2024-01-29 16:29:02,0.0
4337,-272,477,-445,112,-65,2024-01-29 16:29:02,0.0
4464,-163,443,-430,190,-67,2024-01-29 16:29:02,0.0
4359,-301,529,-389,44,-28,2024-01-29 16:29:02,0.0
4197,-259,590,-352,120,-54,2024-01-29 16:29:02,0.0
4355,-298,546,-358,41,-3,2024-01-29 16:29:02,0.0
4322,-151,513,-365,113,-46,2024-01-29 16:29:02,0.0
4213,-335,611,-390,-43,-20,2024-01-29 16:29:02,0.0
4307,-402,667,-245,-82,-36,2024-01-29 16:29:02,0.0
4297,-376,536,-185,25,13,2024-01-29 16:29:02,0.0
4287,-303,768,-72,25,-8,2024-01-29 16:29:02,0.0
4472,-478,670,-95,-156,56,2024-01-29 16:29:02,0.0
4067,-289,560,72,-172,12,2024-01-29 16:29:02,0.0
4594,-103,149,-53,48,60,2024-01-29 16:29:02,0.0
4196,-222,596,-47,-106,45,2024-01-29 16:29:02,0.0
4342,-458,412,11,-59,38,2024-01-29 16:29:02,0.0
4329,-304,440,43,-189,86,2024-01-29 16:29:02,0.0
4357,-475,463,69,-173,12,2024-01-29 16:29:03,0.0
4201,-336,369,60,-197,48,2024-01-29 16:29:03,0.0
4258,-257,418,57,-148,-8,2024-01-29 16:29:03,0.0
4382,-244,312,-79,-187,4,2024-01-29 16:29:03,0.0
4428,-398,223,66,-86,9,2024-01-29 16:29:03,0.0
4439,-234,244,-5,-45,-6,2024-01-29 16:29:03,0.0
4346,-350,234,37,-28,7,2024-01-29 16:29:03,0.0
4358,-245,221,-9,-92,7,2024-01-29 16:29:03,0.0
4223,-278,219,-32,-62,5,2024-01-29 16:29:03,0.0
4414,-291,229,-26,-69,-14,2024-01-29 16:29:03,0.0
4210,-279,245,45,-16,19,2024-01-29 16:29:03,0.0
4508,-289,172,83,11,27,2024-01-29 16:29:03,0.0
4321,-85,263,3,40,23,2024-01-29 16:29:03,0.0
4460,-246,357,-37,65,15,2024-01-29 16:29:03,0.0
4269,-334,352,-117,68,-12,2024-01-29 16:29:03,0.0
4399,-281,210,-117,0,-2,2024-01-29 16:29:03,0.0
4302,-337,280,-93,7,-22,2024-01-29 16:29:03,0.0
4198,-418,214,-61,-60,31,2024-01-29 16:29:03,0.0
4295,-239,-74,-75,3,5,2024-01-29 16:29:04,0.0
4074,-244,102,-177,-105,-2,2024-01-29 16:29:04,0.0
4022,-264,-28,-295,-136,-46,2024-01-29 16:29:04,0.0
3628,-383,278,-231,-73,-10,2024-01-29 16:29:04,0.0
3916,-51,6,-181,63,-61,2024-01-29 16:29:04,0.0
3199,-709,304,38,-296,-2,2024-01-29 16:29:04,
3922,16,-343,-186,389,-87,2024-01-29 16:29:04,0.0
4027,-464,519,98,200,176,2024-01-29 16:29:04,0.0
4272,24,-182,-41,517,-70,2024-01-29 16:29:04,0.0
4609,-412,85,-101,582,81,2024-01-29 16:29:04,0.0
3827,-438,112,68,868,20,2024-01-29 16:29:04,0.0
4712,-171,55,-107,1567,-1,2024-01-29 16:29:04,0.0
3905,-301,932,-28,1363,5,2024-01-29 16:29:04,0.0
4846,-247,936,-109,1530,22,2024-01-29 16:29:04,0.0
4464,-259,1036,54,1678,-6,2024-01-29 16:29:04,0.0
3528,-262,1117,-100,1735,-15,2024-01-29 16:29:04,0.0
3721,-287,1319,22,2003,0,2024-01-29 16:29:04,0.0
2743,-139,806,-275,2095,10,2024-01-29 16:29:05,0.0
2645,-441,988,95,2460,98,2024-01-29 16:29:05,0.0
2278,147,764,-235,2780,79,2024-01-29 16:29:05,0.0
-486,232,-230,-336,2667,-64,2024-01-29 16:29:05,0.0
-856,1157,1300,-1201,1721,140,2024-01-29 16:29:05,0.0
-3923,-6214,19300,-473,3221,809,2024-01-29 16:29:05,0.0
-9860,-2449,7395,-499,-54,254,2024-01-29 16:29:05,0.0
946,84,1814,986,155,-21,2024-01-29 16:29:05,0.0
546,-708,1166,223,999,42,2024-01-29 16:29:05,0.0
-3944,261,3718,206,-1129,350,2024-01-29 16:29:05,0.0
1251,-17,3724,416,-549,-13,2024-01-29 16:29:05,0.0
1524,143,5128,-179,-253,135,2024-01-29 16:29:05,0.0
-433,-755,4473,-72,210,114,2024-01-29 16:29:05,0.0
-572,-254,4314,72,-565,-77,2024-01-29 16:29:05,0.0
42,20,3786,-204,63,-17,2024-01-29 16:29:05,0.0
-697,-320,4296,-90,-289,-69,2024-01-29 16:29:05,0.0
-268,-355,4229,-152,-32,38,2024-01-29 16:29:05,0.0
28,-318,4290,-158,-134,-73,2024-01-29 16:29:06,0.0
-164,-574,4157,-139,12,15,2024-01-29 16:29:06,0.0
2,-346,4115,-125,-105,-44,2024-01-29 16:29:06,0.0
58,-591,4209,-57,1,-35,2024-01-29 16:29:06,0.0
-175,-459,4241,-71,-67,-24,2024-01-29 16:29:06,0.0
-127,-421,4134,-105,-119,-40,2024-01-29 16:29:06,0.0
-68,-410,4201,-99,-73,-18,2024-01-29 16:29:06,0.0
-232,-547,4088,-100,-4,-16,2024-01-29 16:29:06,0.0
-79,-723,4210,-48,156,36,2024-01-29 16:29:06,0.0
28,-527,4086,-77,94,-42,2024-01-29 16:29:06,0.0
-489,-496,4230,-47,77,39,2024-01-29 16:29:06,0.0
-126,-459,4316,-89,32,-7,2024-01-29 16:29:06,0.0
131,-545,4030,-146,200,5,2024-01-29 16:29:06,0.0
-267,-496,4347,-33,-60,45,2024-01-29 16:29:06,0.0
-358,-883,4042,-48,125,87,2024-01-29 16:29:06,0.0
-143,-367,4335,44,174,64,2024-01-29 16:29:06,0.0
-332,-901,4108,55,167,65,2024-01-29 16:29:06,0.0
30,-648,4090,180,129,20,2024-01-29 16:29:06,0.0
-147,97,4336,47,49,-204,2024-01-29 16:29:07,0.0
-1510,808,3870,-359,12,-310,2024-01-29 16:29:07,0.0
-932,-922,4200,-250,-446,-222,2024-01-29 16:29:07,0.0
-1217,372,3349,-333,-1000,-162,2024-01-29 16:29:07,0.0
-805,-1866,4139,-304,-1574,54,2024-01-29 16:29:07,0.0
217,-1252,4477,13,-1465,-30,2024-01-29 16:29:07,0.0
898,-972,4934,26,-1401,86,2024-01-29 16:29:07,0.0
1142,-514,5277,-152,-1548,-108,2024-01-29 16:29:07,0.0
1566,-600,3613,-32,-1407,-175,2024-01-29 16:29:07,0.0
2052,-702,3137,-144,-1384,-120,2024-01-29 16:29:07,0.0
2348,-909,3903,-199,-1444,-73,2024-01-29 16:29:07,0.0
2440,-902,3113,21,-1158,-94,2024-01-29 16:29:07,0.0
3014,-971,3040,147,-842,-101,2024-01-29 16:29:07,0.0
3171,-548,3133,254,-674,-199,2024-01-29 16:29:07,0.0
3227,-322,2713,124,-702,-111,2024-01-29 16:29:07,0.0
3320,-542,3146,165,-802,-15,2024-01-29 16:29:07,0.0
3471,-612,2270,108,-696,30,2024-01-29 16:29:07,0.0
3670,-257,2702,242,-343,-65,2024-01-29 16:29:08,0.0
2882,-551,3239,-43,-547,-8,2024-01-29 16:29:08,0.0
3249,-350,2896,161,-598,-157,2024-01-29 16:29:08,0.0
4180,-551,2961,93,-542,62,2024-01-29 16:29:08,0.0
3851,-429,3297,147,-485,158,2024-01-29 16:29:08,0.0
4410,-348,3059,342,-152,307,2024-01-29 16:29:08,0.0
3774,592,3170,-19,119,180,2024-01-29 16:29:08,0.0
3637,-676,2832,123,495,86,2024-01-29 16:29:08,0.0
3153,53,2757,227,1099,143,2024-01-29 16:29:08,0.0
2465,-634,1690,160,1436,147,2024-01-29 16:29:08,0.0
1743,-21,2528,-70,1296,549,2024-01-29 16:29:08,0.0
1419,131,2931,-228,1485,630,2024-01-29 16:29:08,0.0
2266,-1821,2668,-279,853,276,2024-01-29 16:29:08,0.0
1332,-214,3863,-91,-316,521,2024-01-29 16:29:08,0.0
1891,-1141,2950,-458,-687,-15,2024-01-29 16:29:08,0.0
2984,-966,2963,-605,-823,91,2024-01-29 16:29:08,0.0
3133,-999,3094,-976,-1638,-16,2024-01-29 16:29:08,0.0
3428,-878,2834,-1370,-1580,-316,2024-01-29 16:29:08,0.0
3424,-1643,2485,-1086,-1356,-508,2024-01-29 16:29:09,0.0
3317,-734,2011,-812,-1184,-464,2024-01-29 16:29:09,0.0
4849,-1369,1998,-696,-857,-395,2024-01-29 16:29:09,0.0
3924,-1916,1157,51,-1076,-113,2024-01-29 16:29:09,0.0
4286,38,1693,-73,-1150,-216,2024-01-29 16:29:09,0.0
4714,-1193,1191,-549,-968,-326,2024-01-29 16:29:09,0.0
4159,-1303,847,-630,-992,-270,2024-01-29 16:29:09,0.0
4204,-1455,705,-426,-997,-88,2024-01-29 16:29:09,0.0
4114,-1161,190,-619,-1268,-84,2024-01-29 16:29:09,0.0
4227,-1601,198,-418,-1012,115,2024-01-29 16:29:09,0.0
5167,-614,-488,-272,-1177,207,2024-01-29 16:29:09,0.0
5354,-2120,-1165,-440,-1126,-26,2024-01-29 16:29:09,0.0
4632,-349,-1192,-642,-701,-72,2024-01-29 16:29:09,0.0
5240,-953,-1645,-190,-58,-496,2024-01-29 16:29:09,0.0
4576,-498,-1249,-229,-730,-887,2024-01-29 16:29:09,0.0
4152,-958,-1512,150,-584,-668,2024-01-29 16:29:09,0.0
4740,-125,-1804,108,-625,-950,2024-01-29 16:29:09,0.0
4032,-494,-1721,281,-399,-999,2024-01-29 16:29:10,0.0
3761,-381,-2104,301,-165,-792,2024-01-29 16:29:10,
