acceleration_x,acceleration_y,acceleration_z,gyroscope_x,gyroscope_y,gyroscope_z,timestamp,label
-3615,372,1388,-45,-40,11,2024-01-24 14:08:56,0.0
-3582,351,1400,-45,-29,11,2024-01-24 14:08:56,0.0
-3596,353,1412,-46,1,10,2024-01-24 14:08:57,0.0
-3618,350,1349,-50,-16,12,2024-01-24 14:08:57,0.0
-3618,385,1344,-59,-13,17,2024-01-24 14:08:57,0.0
-3613,331,1383,-53,7,11,2024-01-24 14:08:57,0.0
-3599,379,1381,-52,-27,16,2024-01-24 14:08:57,0.0
-3590,355,1398,-40,-19,6,2024-01-24 14:08:57,0.0
-3643,370,1344,-39,-34,5,2024-01-24 14:08:57,0.0
-3595,309,1392,-26,13,-4,2024-01-24 14:08:57,0.0
-3627,373,1324,-20,-14,-4,2024-01-24 14:08:57,0.0
-3609,357,1327,-17,-27,-3,2024-01-24 14:08:57,0.0
-3656,336,1327,-6,-35,1,2024-01-24 14:08:57,0.0
-3612,333,1364,-5,-46,3,2024-01-24 14:08:57,0.0
-3592,324,1373,-17,-46,7,2024-01-24 14:08:57,0.0
-3583,301,1350,-32,-28,13,2024-01-24 14:08:57,0.0
-3611,347,1381,-32,-32,16,2024-01-24 14:08:57,0.0
-3599,331,1367,-33,-42,12,2024-01-24 14:08:57,0.0
-3611,327,1395,-35,-46,15,2024-01-24 14:08:57,0.0
-3607,339,1353,-26,-41,14,2024-01-24 14:08:58,0.0
-3606,334,1341,-31,-62,17,2024-01-24 14:08:58,0.0
-3630,326,1389,-33,-54,20,2024-01-24 14:08:58,0.0
-3622,323,1397,-42,-56,26,2024-01-24 14:08:58,0.0
-3616,348,1443,-38,-44,15,2024-01-24 14:08:58,0.0
-3624,326,1387,-36,-61,21,2024-01-24 14:08:58,0.0
-3607,328,1397,-33,-69,21,2024-01-24 14:08:58,0.0
-3614,342,1469,-45,-67,20,2024-01-24 14:08:58,0.0
-3592,336,1470,-48,-72,22,2024-01-24 14:08:58,0.0
-3592,331,1484,-54,-69,26,2024-01-24 14:08:58,0.0
-3590,343,1484,-54,-75,25,2024-01-24 14:08:58,0.0
-3556,341,1460,-47,-58,22,2024-01-24 14:08:58,0.0
-3563,328,1469,-45,-44,22,2024-01-24 14:08:58,0.0
-3578,342,1460,-33,-29,18,2024-01-24 14:08:58,0.0
-3541,337,1450,-36,-9,10,2024-01-24 14:08:58,0.0
-3604,370,1470,-33,-5,11,2024-01-24 14:08:58,0.0
-3595,375,1458,-22,10,8,2024-01-24 14:08:58,0.0
-3582,355,1435,-31,18,7,2024-01-24 14:08:59,0.0
-3613,353,1448,-32,1,13,2024-01-24 14:08:59,0.0
-3587,350,1451,-41,-11,15,2024-01-24 14:08:59,0.0
-3577,366,1460,-34,-17,13,2024-01-24 14:08:59,0.0
-3600,394,1424,-13,-19,17,2024-01-24 14:08:59,0.0
-3581,371,1450,0,-38,13,2024-01-24 14:08:59,0.0
-3569,349,1414,-2,-61,13,2024-01-24 14:08:59,0.0
-3582,331,1468,-6,-36,8,2024-01-24 14:08:59,0.0
-3619,319,1482,-25,-24,11,2024-01-24 14:08:59,0.0
-3635,317,1428,-20,-22,10,2024-01-24 14:08:59,0.0
-3586,347,1464,-29,-13,12,2024-01-24 14:08:59,0.0
-3613,351,1443,-35,-8,12,2024-01-24 14:08:59,0.0
-3565,339,1445,-44,-18,16,2024-01-24 14:08:59,0.0
-3602,361,1388,-41,-28,16,2024-01-24 14:08:59,0.0
-3580,334,1407,-55,-33,23,2024-01-24 14:08:59,0.0
-3581,368,1463,-46,-42,10,2024-01-24 14:08:59,0.0
-3589,331,1482,-51,-45,16,2024-01-24 14:08:59,0.0
-3602,402,1424,-47,-30,6,2024-01-24 14:08:59,0.0
-3585,325,1460,-66,-16,0,2024-01-24 14:09:00,0.0
-3581,327,1497,-49,49,5,2024-01-24 14:09:00,0.0
-3668,314,1342,-114,-18,39,2024-01-24 14:09:00,0.0
-3619,304,1433,-130,-4,45,2024-01-24 14:09:00,0.0
-3620,282,1390,-190,64,48,2024-01-24 14:09:00,0.0
-3607,332,1384,-189,67,57,2024-01-24 14:09:00,0.0
-3538,352,1345,-168,121,26,2024-01-24 14:09:00,0.0
-3629,386,1245,-152,76,22,2024-01-24 14:09:00,0.0
-3617,373,1310,-102,86,4,2024-01-24 14:09:00,0.0
-3662,337,1287,-72,22,12,2024-01-24 14:09:00,0.0
-3646,297,1356,-55,15,17,2024-01-24 14:09:00,0.0
-3670,308,1370,-76,27,28,2024-01-24 14:09:00,0.0
-3640,341,1307,-60,90,15,2024-01-24 14:09:00,0.0
-3649,287,1227,-75,88,24,2024-01-24 14:09:00,0.0
-3681,369,1129,-46,111,8,2024-01-24 14:09:00,0.0
-3677,311,1176,-21,49,22,2024-01-24 14:09:00,0.0
-3680,293,1011,-6,14,15,2024-01-24 14:09:00,0.0
-3692,304,1090,17,68,25,2024-01-24 14:09:01,0.0
-3703,287,1089,-11,85,48,2024-01-24 14:09:01,0.0
-3703,319,1070,-36,92,40,2024-01-24 14:09:01,0.0
-3684,328,1069,-45,77,43,2024-01-24 14:09:01,0.0
-3709,321,1026,-53,9,51,2024-01-24 14:09:01,0.0
-3647,320,1043,-66,-12,54,2024-01-24 14:09:01,0.0
-3684,356,1038,-64,-41,32,2024-01-24 14:09:01,0.0
-3742,362,964,-73,-100,11,2024-01-24 14:09:01,0.0
-3583,233,1041,-109,-134,-14,2024-01-24 14:09:01,0.0
-3816,313,1040,-168,-148,4,2024-01-24 14:09:01,0.0
-3775,385,1174,-140,-32,-27,2024-01-24 14:09:01,0.0
-3679,298,1263,-150,-101,-3,2024-01-24 14:09:01,0.0
-3616,328,1022,-150,-29,-1,2024-01-24 14:09:01,0.0
-3758,300,942,-100,-99,49,2024-01-24 14:09:01,0.0
-3619,366,1122,-82,-138,34,2024-01-24 14:09:01,0.0
-3644,266,1119,-45,-97,7,2024-01-24 14:09:01,0.0
-3788,304,1316,-11,-89,-5,2024-01-24 14:09:01,0.0
-3558,232,1214,-33,42,-37,2024-01-24 14:09:01,0.0
-3659,175,1066,-143,1,-63,2024-01-24 14:09:02,0.0
-3652,160,1130,-215,-397,35,2024-01-24 14:09:02,0.0
-3652,193,1172,-203,-437,48,2024-01-24 14:09:02,0.0
-3726,572,1792,-19,-255,-70,2024-01-24 14:09:02,0.0
-3568,170,1643,116,95,-46,2024-01-24 14:09:02,0.0
-3732,317,1290,64,25,-65,2024-01-24 14:09:02,0.0
-3385,52,1333,65,-3,19,2024-01-24 14:09:02,0.0
-3758,181,1644,111,199,-26,2024-01-24 14:09:02,0.0
-3787,197,978,74,-47,-27,2024-01-24 14:09:02,0.0
-3606,369,1250,159,25,-130,2024-01-24 14:09:02,0.0
-3709,63,1500,136,-112,-94,2024-01-24 14:09:02,
-3559,-2,1319,-32,16,-22,2024-01-24 14:09:02,0.0
-3663,-12,1368,-188,-21,74,2024-01-24 14:09:02,0.0
-3589,238,1308,-233,-8,108,2024-01-24 14:09:02,0.0
-3651,189,1548,-248,128,161,2024-01-24 14:09:02,0.0
-3531,142,1180,-385,365,151,2024-01-24 14:09:02,0.0
-3588,183,899,-306,327,320,2024-01-24 14:09:02,0.0
-3933,773,1161,-9,211,152,2024-01-24 14:09:03,0.0
-3707,486,1105,132,111,22,2024-01-24 14:09:03,0.0
-3812,325,929,275,10,-142,2024-01-24 14:09:03,0.0
-3628,109,908,256,-39,-154,2024-01-24 14:09:03,0.0
-3750,127,1131,72,-165,-85,2024-01-24 14:09:03,0.0
-3672,339,1094,58,-113,-71,2024-01-24 14:09:03,0.0
-3588,192,1062,123,-42,-45,2024-01-24 14:09:03,0.0
-3580,154,912,19,-144,-97,2024-01-24 14:09:03,0.0
-3997,117,1034,1,140,-114,2024-01-24 14:09:03,0.0
-3802,-142,601,5,-61,-17,2024-01-24 14:09:03,0.0
-4068,403,1132,-267,-264,-85,2024-01-24 14:09:03,0.0
-3222,-232,970,-164,-98,238,2024-01-24 14:09:03,0.0
-3924,525,1469,-268,-199,37,2024-01-24 14:09:03,0.0
-3422,98,1077,-285,-67,33,2024-01-24 14:09:03,0.0
-3976,477,1260,-22,23,38,2024-01-24 14:09:03,0.0
-3471,-18,603,-190,-145,12,2024-01-24 14:09:03,0.0
-3816,328,1485,-104,-389,56,2024-01-24 14:09:03,0.0
-3616,106,1316,-27,-151,34,2024-01-24 14:09:03,0.0
-3595,319,1334,-28,-203,12,2024-01-24 14:09:04,0.0
-3629,57,1209,-93,-131,16,2024-01-24 14:09:04,0.0
-3758,246,1328,-159,17,34,2024-01-24 14:09:04,0.0
-3577,137,1351,-161,9,151,2024-01-24 14:09:04,0.0
-3516,162,1567,-145,157,95,2024-01-24 14:09:04,0.0
-3768,273,1242,-71,167,-6,2024-01-24 14:09:04,0.0
-3628,375,1249,40,121,20,2024-01-24 14:09:04,0.0
-3648,340,1009,212,91,-13,2024-01-24 14:09:04,0.0
-3609,245,1233,319,114,-67,2024-01-24 14:09:04,0.0
-3731,131,1191,311,79,-79,2024-01-24 14:09:04,0.0
-3656,-11,1086,173,103,-18,2024-01-24 14:09:04,0.0
-3700,235,1052,46,7,-24,2024-01-24 14:09:04,0.0
-3571,137,1194,44,127,-29,2024-01-24 14:09:04,0.0
-3891,490,997,97,-96,-32,2024-01-24 14:09:04,0.0
-3680,139,841,130,-84,0,2024-01-24 14:09:04,0.0
-3648,233,1101,106,-5,27,2024-01-24 14:09:04,0.0
-3751,275,1034,57,-78,29,2024-01-24 14:09:04,0.0
-3773,231,1200,89,-108,-17,2024-01-24 14:09:05,0.0
-3632,215,956,60,-94,-8,2024-01-24 14:09:05,0.0
-3729,222,902,18,-16,-1,2024-01-24 14:09:05,0.0
-3745,258,1054,3,-50,-6,2024-01-24 14:09:05,0.0
-3637,376,1256,70,-48,6,2024-01-24 14:09:05,0.0
-3764,247,1118,63,-57,1,2024-01-24 14:09:05,0.0
-3764,-81,1244,-37,-160,36,2024-01-24 14:09:05,0.0
-3587,198,932,-87,201,18,2024-01-24 14:09:05,0.0
-3747,376,719,-87,-51,-4,2024-01-24 14:09:05,0.0
-3726,325,1176,-81,14,-18,2024-01-24 14:09:05,0.0
-3620,153,1073,-70,-31,24,2024-01-24 14:09:05,0.0
-3722,296,1197,-101,-175,42,2024-01-24 14:09:05,0.0
-3716,80,1267,-180,-165,38,2024-01-24 14:09:05,0.0
-3675,425,1233,-29,-59,-35,2024-01-24 14:09:05,0.0
-3589,147,1033,-78,-188,-7,2024-01-24 14:09:05,0.0
-3720,274,1339,37,-96,13,2024-01-24 14:09:05,0.0
-3648,150,1237,45,-201,5,2024-01-24 14:09:05,0.0
-3627,330,1406,-3,-161,7,2024-01-24 14:09:05,0.0
-3570,246,1383,-32,-260,46,2024-01-24 14:09:06,0.0
-3627,216,1354,3,-29,5,2024-01-24 14:09:06,0.0
-3672,153,1639,-68,-37,28,2024-01-24 14:09:06,0.0
-3611,356,1139,16,430,-28,2024-01-24 14:09:06,0.0
-3866,146,1073,12,-80,5,2024-01-24 14:09:06,0.0
-3696,200,1289,-22,37,16,2024-01-24 14:09:06,0.0
-3557,174,1616,-60,188,11,2024-01-24 14:09:06,0.0
-3578,76,991,-81,224,11,2024-01-24 14:09:06,0.0
-3836,414,792,-1,73,-15,2024-01-24 14:09:06,0.0
-3585,315,1252,118,88,-17,2024-01-24 14:09:06,0.0
-3746,312,1126,184,129,-25,2024-01-24 14:09:06,0.0
-3849,179,665,155,12,2,2024-01-24 14:09:06,0.0
-3766,172,1148,116,-126,58,2024-01-24 14:09:06,0.0
-3542,95,1462,-30,158,60,2024-01-24 14:09:06,0.0
-3762,172,553,-186,197,79,2024-01-24 14:09:06,0.0
-3872,246,874,-265,-191,128,2024-01-24 14:09:06,0.0
-3534,271,1014,-280,24,77,2024-01-24 14:09:06,0.0
-3806,263,984,-284,25,87,2024-01-24 14:09:07,0.0
-3720,412,911,-238,2,66,2024-01-24 14:09:07,0.0
-3665,322,868,-161,11,27,2024-01-24 14:09:07,0.0
-3844,307,1033,-126,-63,28,2024-01-24 14:09:07,0.0
-3629,242,913,-112,-208,51,2024-01-24 14:09:07,0.0
-3700,375,1055,-148,-367,22,2024-01-24 14:09:07,0.0
-3779,100,1131,-210,-213,23,2024-01-24 14:09:07,0.0
-3666,413,1251,-195,-172,25,2024-01-24 14:09:07,0.0
-3713,160,1128,-176,84,-4,2024-01-24 14:09:07,0.0
-3647,319,1102,-92,209,-22,2024-01-24 14:09:07,0.0
-3817,284,1050,13,399,-12,2024-01-24 14:09:07,0.0
-3781,264,819,87,337,-69,2024-01-24 14:09:07,0.0
-3767,515,856,232,177,-70,2024-01-24 14:09:07,0.0
-3730,40,824,253,-77,-41,2024-01-24 14:09:07,0.0
-3759,-65,828,53,-38,-18,2024-01-24 14:09:07,0.0
-3727,345,711,20,-275,62,2024-01-24 14:09:07,0.0
-3690,51,770,-60,-63,19,2024-01-24 14:09:07,0.0
-3885,241,987,-74,-142,29,2024-01-24 14:09:07,0.0
-3748,226,879,-106,-379,67,2024-01-24 14:09:08,0.0
-3732,214,1014,-100,-240,52,2024-01-24 14:09:08,0.0
-3791,318,813,-104,-255,21,2024-01-24 14:09:08,0.0
-3599,144,1275,-137,-100,33,2024-01-24 14:09:08,0.0
-3781,210,1207,-208,-67,78,2024-01-24 14:09:08,0.0
-3679,325,1202,-166,78,58,2024-01-24 14:09:08,
-3651,294,1252,-134,78,42,2024-01-24 14:09:08,0.0
-3558,332,1176,-17,222,-4,2024-01-24 14:09:08,0.0
-3793,345,924,49,148,-30,2024-01-24 14:09:08,0.0
-3805,309,858,94,-30,-1,2024-01-24 14:09:08,0.0
-3604,217,1086,113,55,-14,2024-01-24 14:09:08,0.0
-3764,124,875,15,11,43,2024-01-24 14:09:08,0.0
-3938,445,1012,48,12,-50,2024-01-24 14:09:08,0.0
-3672,242,846,69,-105,25,2024-01-24 14:09:08,0.0
-3599,283,980,47,-119,14,2024-01-24 14:09:08,0.0
-3746,174,1007,44,-171,12,2024-01-24 14:09:08,0.0
-3675,295,1025,19,-154,3,2024-01-24 14:09:08,0.0
-3673,251,1031,0,-128,23,2024-01-24 14:09:09,0.0
-3762,261,1096,-6,-112,25,2024-01-24 14:09:09,0.0
-3645,219,1071,-23,-107,32,2024-01-24 14:09:09,0.0
-3693,283,1135,-19,-83,18,2024-01-24 14:09:09,0.0
-3668,240,1135,-30,-45,10,2024-01-24 14:09:09,0.0
-3624,242,1096,-9,161,-23,2024-01-24 14:09:09,0.0
-3785,261,1074,-9,138,-44,2024-01-24 14:09:09,0.0
-3835,377,850,-42,-69,23,2024-01-24 14:09:09,0.0
-3698,243,1056,6,-62,16,2024-01-24 14:09:09,0.0
-3680,270,1025,-22,-60,14,2024-01-24 14:09:09,0.0
-3636,309,1016,3,31,-11,2024-01-24 14:09:09,0.0
-3735,270,994,40,85,-18,2024-01-24 14:09:09,0.0
-3797,152,1118,5,-46,6,2024-01-24 14:09:09,0.0
-3652,245,897,-83,-134,66,2024-01-24 14:09:09,0.0
-3707,306,1076,-42,-105,27,2024-01-24 14:09:09,0.0
-3519,236,1010,-46,2,-3,2024-01-24 14:09:09,0.0
-3759,243,1096,-1,24,-16,2024-01-24 14:09:09,0.0
-3643,217,997,-32,165,-10,2024-01-24 14:09:09,0.0
-3782,306,964,-14,17,1,2024-01-24 14:09:10,0.0
-3861,217,990,-14,124,-1,2024-01-24 14:09:10,0.0
-3790,298,819,48,331,-24,2024-01-24 14:09:10,0.0
-3688,140,557,-62,-9,28,2024-01-24 14:09:10,0.0
-3856,231,699,-100,-286,88,2024-01-24 14:09:10,0.0
-3648,506,1315,-2,-64,14,2024-01-24 14:09:10,0.0
-3448,281,781,57,-159,-23,2024-01-24 14:09:10,0.0
-3807,359,960,44,-646,-40,2024-01-24 14:09:10,0.0
-3582,18,840,-60,-639,5,2024-01-24 14:09:10,0.0
-3749,213,1350,-83,-328,-17,2024-01-24 14:09:10,0.0
-3563,313,1221,-94,-363,-16,2024-01-24 14:09:10,0.0
-3755,345,1614,0,-288,-35,2024-01-24 14:09:11,0.0
-3615,315,1474,107,-245,-37,2024-01-24 14:09:11,0.0
-3667,2,1501,51,-50,-20,2024-01-24 14:09:11,0.0
-3378,241,1858,56,-116,22,2024-01-24 14:09:11,0.0
-3693,108,1684,-46,120,0,2024-01-24 14:09:11,0.0
-3505,376,1362,-27,163,9,2024-01-24 14:09:11,0.0
-3645,208,1488,35,160,-19,2024-01-24 14:09:11,0.0
-3573,110,1326,-26,66,4,2024-01-24 14:09:11,0.0
-3622,183,1365,-52,17,-8,2024-01-24 14:09:11,0.0
-3648,150,1347,-40,0,13,2024-01-24 14:09:11,0.0
-3699,184,1348,-17,64,-3,2024-01-24 14:09:11,0.0
-3647,262,1173,40,241,-5,2024-01-24 14:09:11,0.0
-3703,295,1222,90,133,-24,2024-01-24 14:09:11,0.0
-3690,261,1189,101,148,-3,2024-01-24 14:09:11,0.0
-3641,61,1136,41,208,25,2024-01-24 14:09:11,0.0
-3685,169,1136,-63,186,69,2024-01-24 14:09:11,0.0
-3718,162,1068,-178,144,112,2024-01-24 14:09:11,0.0
-3716,292,932,-249,151,143,2024-01-24 14:09:11,0.0
-3720,259,1032,-260,34,133,2024-01-24 14:09:12,0.0
-3620,240,1094,-325,24,116,2024-01-24 14:09:12,0.0
-3666,456,1084,-327,-33,94,2024-01-24 14:09:12,0.0
-3747,336,972,-316,-9,49,2024-01-24 14:09:12,0.0
-3680,343,926,-346,-62,55,2024-01-24 14:09:12,0.0
-3764,308,1118,-395,-152,-2,2024-01-24 14:09:12,0.0
-3671,103,1031,-423,-208,54,2024-01-24 14:09:12,0.0
-3694,68,1154,-480,-261,116,2024-01-24 14:09:12,0.0
-3675,217,1196,-500,-240,126,2024-01-24 14:09:12,0.0
-3671,286,1202,-398,-228,115,2024-01-24 14:09:12,0.0
-3692,239,1165,-331,-306,84,2024-01-24 14:09:12,0.0
-3622,319,1295,-194,-282,45,2024-01-24 14:09:12,0.0
-3558,241,1506,-44,-251,26,2024-01-24 14:09:12,0.0
-3530,249,1490,45,-307,-27,2024-01-24 14:09:12,0.0
-3590,281,1481,29,-347,-21,2024-01-24 14:09:12,0.0
-3551,165,1571,48,-374,-61,2024-01-24 14:09:12,0.0
-3559,242,1658,46,-356,-63,2024-01-24 14:09:12,0.0
-3538,260,1705,27,-266,-69,2024-01-24 14:09:12,0.0
-3468,210,1781,18,-212,-63,2024-01-24 14:09:12,0.0
-3484,142,1875,76,-30,-87,2024-01-24 14:09:12,0.0
-3559,4,1997,-36,116,-47,2024-01-24 14:09:12,0.0
-3420,22,1806,-201,114,27,2024-01-24 14:09:12,0.0
-3528,-104,1984,-422,135,84,2024-01-24 14:09:12,0.0
-3417,-108,1722,-594,145,133,2024-01-24 14:09:13,0.0
-3478,43,1775,-724,185,188,2024-01-24 14:09:13,0.0
-3486,1,1827,-812,285,236,2024-01-24 14:09:13,0.0
-3518,37,1739,-860,266,283,2024-01-24 14:09:13,0.0
-3539,171,1565,-845,290,314,2024-01-24 14:09:13,0.0
-3526,218,1504,-778,265,316,2024-01-24 14:09:13,0.0
-3542,448,1475,-504,210,281,2024-01-24 14:09:13,0.0
-3617,424,1368,-180,135,170,2024-01-24 14:09:13,0.0
-3583,386,1354,133,33,67,2024-01-24 14:09:13,0.0
-3663,223,1392,358,9,-65,2024-01-24 14:09:13,0.0
-3615,169,1288,511,-73,-101,2024-01-24 14:09:13,0.0
-3644,59,1429,562,-34,-129,2024-01-24 14:09:13,0.0
-3661,-33,1310,493,-9,-113,2024-01-24 14:09:13,0.0
-3740,82,1317,435,-24,-99,2024-01-24 14:09:13,0.0
-3678,51,1376,360,5,-99,2024-01-24 14:09:13,0.0
-3604,55,1307,280,-18,-88,2024-01-24 14:09:13,0.0
-3657,142,1271,248,-45,-81,2024-01-24 14:09:13,0.0
-3689,105,1210,248,-73,-68,2024-01-24 14:09:13,0.0
-3710,187,1253,231,-83,-64,2024-01-24 14:09:14,
-3640,119,1279,226,-83,-59,2024-01-24 14:09:14,0.0
-3658,56,1254,182,-83,-33,2024-01-24 14:09:14,0.0
-3628,189,1285,171,-100,-25,2024-01-24 14:09:14,0.0
-3647,146,1319,188,-45,-10,2024-01-24 14:09:14,0.0
-3646,196,1278,181,-73,-18,2024-01-24 14:09:14,0.0
-3646,177,1281,147,-40,-33,2024-01-24 14:09:14,0.0
-3638,48,1256,42,-116,-6,2024-01-24 14:09:14,0.0
-3695,104,1290,-71,-154,5,2024-01-24 14:09:14,0.0
-3630,161,1338,-136,-6,41,2024-01-24 14:09:14,0.0
-3618,74,1433,-219,-45,65,2024-01-24 14:09:14,0.0
-3579,146,1492,-281,10,57,2024-01-24 14:09:14,0.0
-3678,124,1365,-424,48,120,2024-01-24 14:09:14,0.0
-3645,120,1406,-515,116,134,2024-01-24 14:09:14,0.0
-3593,171,1431,-582,146,149,2024-01-24 14:09:14,0.0
-3656,135,1290,-619,91,166,2024-01-24 14:09:14,0.0
-3659,60,1241,-700,88,197,2024-01-24 14:09:14,0.0
-3700,84,1295,-774,68,221,2024-01-24 14:09:15,0.0
-3620,133,1271,-765,9,254,2024-01-24 14:09:15,0.0
-3625,163,1262,-716,8,257,2024-01-24 14:09:15,0.0
-3593,237,1285,-596,-11,211,2024-01-24 14:09:15,0.0
-3598,299,1292,-351,7,122,2024-01-24 14:09:15,0.0
-3723,292,1241,-133,12,57,2024-01-24 14:09:15,0.0
-3706,258,1224,99,-34,-20,2024-01-24 14:09:15,0.0
-3740,257,1169,266,-169,-70,2024-01-24 14:09:15,0.0
-3654,143,1266,370,-105,-129,2024-01-24 14:09:15,0.0
-3632,154,1266,433,-96,-156,2024-01-24 14:09:15,0.0
-3597,173,1317,510,-102,-209,2024-01-24 14:09:15,0.0
-3672,134,1286,585,-95,-232,2024-01-24 14:09:15,0.0
-3649,233,1315,615,-104,-223,2024-01-24 14:09:15,0.0
-3583,246,1446,737,-108,-241,2024-01-24 14:09:15,0.0
-3639,132,1413,768,-86,-229,2024-01-24 14:09:15,0.0
-3579,36,1337,729,-61,-220,2024-01-24 14:09:15,0.0
-3655,175,1306,622,27,-179,2024-01-24 14:09:15,0.0
-3672,90,1385,657,-18,-161,2024-01-24 14:09:15,0.0
-3583,194,1445,653,-85,-139,2024-01-24 14:09:16,0.0
-3620,132,1378,630,-30,-135,2024-01-24 14:09:16,0.0
-3637,123,1309,594,-34,-144,2024-01-24 14:09:16,0.0
-3664,101,1272,543,-1,-126,2024-01-24 14:09:16,0.0
-3714,65,1214,407,-31,-79,2024-01-24 14:09:16,0.0
-3677,56,1226,248,-25,-43,2024-01-24 14:09:16,0.0
-3690,103,1210,101,-40,-3,2024-01-24 14:09:16,0.0
-3662,106,1197,13,26,2,2024-01-24 14:09:16,0.0
-3606,102,1261,-79,-6,22,2024-01-24 14:09:16,0.0
-3657,154,1322,-143,-8,34,2024-01-24 14:09:16,0.0
-3685,141,1200,-189,-42,46,2024-01-24 14:09:16,0.0
-3662,212,1243,-195,-46,47,2024-01-24 14:09:16,0.0
-3613,209,1263,-161,11,34,2024-01-24 14:09:16,0.0
-3684,200,1238,-137,25,29,2024-01-24 14:09:16,0.0
-3678,158,1126,-128,57,12,2024-01-24 14:09:16,0.0
-3661,246,1304,-119,-28,28,2024-01-24 14:09:16,0.0
-3609,74,1443,-93,-95,59,2024-01-24 14:09:16,0.0
-3551,110,1400,-193,-353,117,2024-01-24 14:09:17,0.0
-3766,280,1178,-161,52,58,2024-01-24 14:09:17,0.0
-3533,255,1438,-83,270,50,2024-01-24 14:09:17,0.0
-3811,322,922,-32,-51,-9,2024-01-24 14:09:17,0.0
-3568,154,1085,-59,95,-25,2024-01-24 14:09:17,0.0
-3860,24,1570,-61,178,10,2024-01-24 14:09:17,0.0
-3606,142,737,-121,76,40,2024-01-24 14:09:17,0.0
-3571,151,1064,-198,103,39,2024-01-24 14:09:17,0.0
-3710,108,1356,-170,40,41,2024-01-24 14:09:17,0.0
-3555,184,1039,-153,121,44,2024-01-24 14:09:17,0.0
-3841,228,1128,-169,34,36,2024-01-24 14:09:17,0.0
-3603,167,1150,-119,-63,45,2024-01-24 14:09:17,0.0
-3627,312,1278,-13,-7,15,2024-01-24 14:09:17,0.0
-3763,287,1013,60,-144,-34,2024-01-24 14:09:17,0.0
-3679,143,1194,90,-170,-72,2024-01-24 14:09:17,0.0
-3741,-17,1419,-29,-75,6,2024-01-24 14:09:17,0.0
-3698,-4,893,-160,92,32,2024-01-24 14:09:17,0.0
-3773,5,995,-225,124,107,2024-01-24 14:09:17,0.0
-3788,184,1239,-282,80,92,2024-01-24 14:09:18,0.0
-3422,185,1123,-241,94,97,2024-01-24 14:09:18,0.0
-3693,89,939,-234,-32,65,2024-01-24 14:09:18,0.0
-3739,-68,817,-232,-158,147,2024-01-24 14:09:18,0.0
-4057,280,1018,-254,-259,88,2024-01-24 14:09:18,0.0
-3511,128,1117,-311,-367,62,2024-01-24 14:09:18,0.0
-3475,47,1463,-356,-108,-34,2024-01-24 14:09:18,0.0
-3455,8,1368,-355,49,-129,2024-01-24 14:09:18,0.0
-3752,173,1432,-399,176,-90,2024-01-24 14:09:18,0.0
-3720,131,739,-240,432,-101,2024-01-24 14:09:18,0.0
-4146,-123,919,-206,263,11,2024-01-24 14:09:18,0.0
-3739,95,1003,-240,26,112,2024-01-24 14:09:18,0.0
-3710,25,1220,-246,302,82,2024-01-24 14:09:18,0.0
-3685,-39,805,-246,71,89,2024-01-24 14:09:18,0.0
-3755,156,819,-215,73,117,2024-01-24 14:09:18,0.0
-3673,127,1064,-144,-55,79,2024-01-24 14:09:18,0.0
-3776,127,928,-33,34,59,2024-01-24 14:09:18,0.0
-3744,220,896,40,94,20,2024-01-24 14:09:19,0.0
-3931,329,684,206,81,-11,2024-01-24 14:09:19,0.0
-3944,292,751,365,-73,27,2024-01-24 14:09:19,0.0
-3727,105,838,390,-129,107,2024-01-24 14:09:19,0.0
-3791,350,811,359,-109,153,2024-01-24 14:09:19,0.0
-3663,406,874,343,-118,164,2024-01-24 14:09:19,0.0
-3664,447,721,390,-23,139,2024-01-24 14:09:19,0.0
-3711,352,816,363,39,129,2024-01-24 14:09:19,0.0
-3771,193,972,198,23,34,2024-01-24 14:09:19,0.0
-3655,600,689,181,93,77,2024-01-24 14:09:19,0.0
-3759,571,735,335,-65,-44,2024-01-24 14:09:19,0.0
-3839,171,882,204,-119,12,2024-01-24 14:09:19,0.0
-3709,306,740,84,-304,58,2024-01-24 14:09:19,0.0
-3818,631,865,64,-402,153,2024-01-24 14:09:19,
-3633,615,993,23,-301,74,2024-01-24 14:09:19,0.0
-3724,635,1021,48,-221,45,2024-01-24 14:09:19,0.0
-3579,523,1131,99,-214,20,2024-01-24 14:09:19,0.0
-3648,539,1147,71,-216,65,2024-01-24 14:09:19,0.0
-3554,588,1156,39,-212,44,2024-01-24 14:09:20,0.0
-3481,419,1189,1,-222,104,2024-01-24 14:09:20,0.0
-3379,225,1378,-145,-269,208,2024-01-24 14:09:20,0.0
-3898,623,1305,-205,-122,196,2024-01-24 14:09:20,0.0
-3919,613,1353,-185,-124,76,2024-01-24 14:09:20,0.0
-3632,501,1365,-162,-117,48,2024-01-24 14:09:20,0.0
-3496,385,1359,-127,-83,25,2024-01-24 14:09:20,0.0
-3588,434,1298,-124,-31,36,2024-01-24 14:09:20,0.0
-3631,500,1408,-148,72,39,2024-01-24 14:09:20,0.0
-3609,547,1259,-120,129,37,2024-01-24 14:09:20,0.0
-3595,638,1240,-72,169,18,2024-01-24 14:09:20,0.0
-3620,608,1229,-41,144,41,2024-01-24 14:09:20,0.0
-3660,572,1157,-15,167,45,2024-01-24 14:09:20,0.0
-3700,593,1169,0,145,66,2024-01-24 14:09:20,0.0
-3678,624,1098,-25,134,77,2024-01-24 14:09:20,0.0
-3676,595,1078,-23,139,90,2024-01-24 14:09:20,0.0
-3653,636,1029,-41,142,95,2024-01-24 14:09:20,0.0
-3722,656,1001,-35,76,81,2024-01-24 14:09:21,0.0
-3679,685,963,-48,56,68,2024-01-24 14:09:21,0.0
-3639,657,952,-78,45,64,2024-01-24 14:09:21,0.0
-3626,717,952,-80,65,56,2024-01-24 14:09:21,0.0
-3695,705,889,-66,3,47,2024-01-24 14:09:21,0.0
-3693,736,905,-35,20,23,2024-01-24 14:09:21,0.0
-3662,699,911,-36,-34,12,2024-01-24 14:09:21,0.0
-3661,746,892,-28,-17,8,2024-01-24 14:09:21,0.0
-3698,710,882,-15,-23,10,2024-01-24 14:09:21,0.0
-3668,736,878,-6,-46,2,2024-01-24 14:09:21,0.0
-3666,728,942,-3,-55,-8,2024-01-24 14:09:21,0.0
-3644,719,981,-20,-49,3,2024-01-24 14:09:21,0.0
-3704,708,906,-27,-76,3,2024-01-24 14:09:21,0.0
-3663,660,944,-44,-86,16,2024-01-24 14:09:21,0.0
-3645,677,995,-70,-98,28,2024-01-24 14:09:21,0.0
-3709,703,994,-61,-89,21,2024-01-24 14:09:21,0.0
-3634,689,1036,-57,-64,19,2024-01-24 14:09:21,0.0
-3671,732,951,-44,-74,19,2024-01-24 14:09:21,0.0
-3690,686,1023,-38,-66,1,2024-01-24 14:09:22,0.0
-3665,648,1025,-50,-64,-3,2024-01-24 14:09:22,0.0
-3644,660,1014,-53,-72,-11,2024-01-24 14:09:22,0.0
-3673,602,1066,-66,-69,-7,2024-01-24 14:09:22,0.0
-3647,654,1093,-74,-51,-17,2024-01-24 14:09:22,0.0
-3672,621,1036,-68,-54,-13,2024-01-24 14:09:22,0.0
-3667,630,1055,-75,-69,-13,2024-01-24 14:09:22,0.0
-3693,619,1056,-54,-75,-21,2024-01-24 14:09:22,0.0
-3698,559,1122,-69,-60,-21,2024-01-24 14:09:22,0.0
-3595,665,1011,-62,-82,-8,2024-01-24 14:09:22,0.0
-3706,569,1059,-85,-100,-2,2024-01-24 14:09:22,0.0
-3668,586,1122,-93,-103,-12,2024-01-24 14:09:22,0.0
-3644,593,1147,-97,-107,-12,2024-01-24 14:09:22,0.0
-3624,619,1152,-99,-85,-34,2024-01-24 14:09:22,0.0
-3653,627,1194,-26,-60,-45,2024-01-24 14:09:22,0.0
-3634,534,1240,-4,-83,-62,2024-01-24 14:09:22,0.0
-3640,594,1209,13,-87,-99,2024-01-24 14:09:22,0.0
-3593,410,1246,44,-120,-87,2024-01-24 14:09:23,0.0
-3656,476,1298,51,-98,-100,2024-01-24 14:09:23,0.0
-3612,394,1260,18,-95,-71,2024-01-24 14:09:23,0.0
-3606,385,1308,33,-109,-73,2024-01-24 14:09:23,0.0
-3597,443,1295,-37,-144,-22,2024-01-24 14:09:23,0.0
-3611,437,1454,-116,-182,42,2024-01-24 14:09:23,0.0
-3561,426,1408,-140,-152,32,2024-01-24 14:09:23,0.0
-3648,486,1363,-115,-124,28,2024-01-24 14:09:23,0.0
-3493,508,1465,-130,-121,46,2024-01-24 14:09:23,0.0
-3555,561,1387,-67,-20,27,2024-01-24 14:09:23,0.0
-3542,564,1392,-15,27,15,2024-01-24 14:09:23,0.0
-3570,464,1426,-37,21,29,2024-01-24 14:09:23,0.0
-3560,463,1536,-97,-58,39,2024-01-24 14:09:23,0.0
-3618,725,1378,-117,-28,63,2024-01-24 14:09:23,0.0
-3568,583,1324,42,-21,21,2024-01-24 14:09:23,0.0
-3566,391,1505,15,-58,17,2024-01-24 14:09:23,0.0
-3591,489,1390,-47,-72,23,2024-01-24 14:09:23,0.0
-3597,537,1363,-32,-10,14,2024-01-24 14:09:24,0.0
-3555,532,1439,-18,-46,19,2024-01-24 14:09:24,0.0
-3529,499,1477,5,-17,9,2024-01-24 14:09:24,0.0
-3581,494,1468,-7,16,4,2024-01-24 14:09:24,0.0
-3576,468,1384,19,-1,-7,2024-01-24 14:09:24,0.0
-3592,502,1403,22,17,-9,2024-01-24 14:09:24,0.0
-3583,495,1343,32,18,-5,2024-01-24 14:09:24,0.0
-3605,515,1379,31,-6,6,2024-01-24 14:09:24,0.0
-3569,496,1370,24,-7,3,2024-01-24 14:09:24,0.0
-3575,483,1370,19,-26,9,2024-01-24 14:09:24,0.0
-3579,493,1409,-7,-47,4,2024-01-24 14:09:24,0.0
-3604,514,1425,-9,-46,13,2024-01-24 14:09:24,0.0
-3601,478,1395,-10,-47,13,2024-01-24 14:09:24,0.0
-3606,503,1390,-12,-49,12,2024-01-24 14:09:24,0.0
-3562,456,1374,2,-35,11,2024-01-24 14:09:24,0.0
-3603,520,1446,-3,-40,15,2024-01-24 14:09:24,0.0
-3591,500,1408,20,-39,3,2024-01-24 14:09:24,0.0
-3583,506,1426,22,-25,-1,2024-01-24 14:09:24,0.0
-3568,477,1413,19,-27,-4,2024-01-24 14:09:25,0.0
-3595,486,1365,20,-19,-7,2024-01-24 14:09:25,0.0
-3572,472,1383,11,-36,-3,2024-01-24 14:09:25,0.0
-3594,477,1383,-9,-39,-1,2024-01-24 14:09:25,0.0
-3591,502,1376,-19,-41,-1,2024-01-24 14:09:25,0.0
-3600,473,1422,-39,-58,7,2024-01-24 14:09:25,0.0
-3578,477,1452,-33,-33,10,2024-01-24 14:09:25,0.0
-3584,474,1387,-36,-15,0,2024-01-24 14:09:25,0.0
-3566,456,1361,-42,-18,10,2024-01-24 14:09:25,
-3571,472,1423,-46,-33,6,2024-01-24 14:09:25,0.0
-3608,451,1407,-44,-52,15,2024-01-24 14:09:25,0.0
-3562,490,1391,-48,-42,10,2024-01-24 14:09:25,0.0
-3573,472,1381,-40,-49,17,2024-01-24 14:09:25,0.0
-3601,493,1419,-37,-37,17,2024-01-24 14:09:25,0.0
-3564,480,1421,-37,-55,15,2024-01-24 14:09:25,0.0
-3573,466,1404,-29,-51,17,2024-01-24 14:09:25,0.0
-3546,477,1444,-27,-59,16,2024-01-24 14:09:25,0.0
-3596,485,1458,-26,-50,13,2024-01-24 14:09:26,0.0
-3568,494,1475,-30,-32,7,2024-01-24 14:09:26,0.0
-3566,459,1453,-23,-40,7,2024-01-24 14:09:26,0.0
-3550,482,1437,-24,-11,10,2024-01-24 14:09:26,0.0
-3593,462,1453,-31,-40,9,2024-01-24 14:09:26,0.0
-3575,469,1425,-29,-43,9,2024-01-24 14:09:26,0.0
-3571,460,1468,-33,-39,11,2024-01-24 14:09:26,0.0
-3576,485,1487,-38,-43,18,2024-01-24 14:09:26,0.0
-3581,473,1454,-38,-49,18,2024-01-24 14:09:26,0.0
-3565,463,1474,-32,-48,14,2024-01-24 14:09:26,0.0
-3554,485,1450,-29,-48,8,2024-01-24 14:09:26,0.0
-3554,435,1463,-21,-56,11,2024-01-24 14:09:26,0.0
-3574,451,1503,-12,-44,4,2024-01-24 14:09:26,0.0
-3563,473,1525,-16,-26,6,2024-01-24 14:09:26,0.0
-3568,472,1481,-8,-11,5,2024-01-24 14:09:26,0.0
-3575,495,1492,-10,-13,11,2024-01-24 14:09:26,0.0
-3586,469,1473,-17,-11,7,2024-01-24 14:09:26,0.0
-3581,472,1473,-26,-22,11,2024-01-24 14:09:26,0.0
-3550,460,1471,-28,-30,11,2024-01-24 14:09:27,0.0
-3583,475,1445,-39,-31,14,2024-01-24 14:09:27,0.0
-3577,489,1469,-36,-24,11,2024-01-24 14:09:27,0.0
-3551,448,1457,-37,-29,14,2024-01-24 14:09:27,0.0
-3552,481,1464,-36,-20,12,2024-01-24 14:09:27,0.0
-3550,486,1483,-38,-42,9,2024-01-24 14:09:27,0.0
-3553,473,1441,-31,-43,13,2024-01-24 14:09:27,0.0
-3581,481,1552,-32,-13,7,2024-01-24 14:09:27,0.0
-3560,467,1500,-26,-24,16,2024-01-24 14:09:27,0.0
-3583,476,1480,-20,-11,12,2024-01-24 14:09:27,0.0
-3576,477,1413,-29,-25,7,2024-01-24 14:09:27,0.0
-3562,455,1443,-40,-29,13,2024-01-24 14:09:27,0.0
-3586,433,1434,-49,-26,14,2024-01-24 14:09:27,0.0
-3599,460,1473,-63,-29,20,2024-01-24 14:09:27,0.0
-3571,472,1504,-62,-34,19,2024-01-24 14:09:27,0.0
-3583,482,1457,-52,-27,13,2024-01-24 14:09:27,0.0
-3560,477,1502,-48,-40,12,2024-01-24 14:09:27,0.0
-3580,444,1466,-43,-23,9,2024-01-24 14:09:27,0.0
-3556,472,1446,-36,-26,7,2024-01-24 14:09:28,0.0
-3562,455,1440,-38,-25,14,2024-01-24 14:09:28,0.0
-3559,461,1471,-25,-29,7,2024-01-24 14:09:28,0.0
-3580,448,1513,-24,-26,8,2024-01-24 14:09:28,0.0
-3598,441,1461,-28,-17,7,2024-01-24 14:09:28,0.0
-3583,475,1440,-30,-24,12,2024-01-24 14:09:28,0.0
-3548,443,1491,-31,-32,14,2024-01-24 14:09:28,0.0
-3597,468,1452,-35,-37,17,2024-01-24 14:09:28,0.0
-3561,445,1452,-33,-41,16,2024-01-24 14:09:28,0.0
-3528,445,1476,-30,-44,22,2024-01-24 14:09:28,0.0
-3573,479,1484,-27,-49,19,2024-01-24 14:09:28,0.0
-3563,456,1494,-29,-56,21,2024-01-24 14:09:28,0.0
-3568,429,1477,-34,-77,19,2024-01-24 14:09:28,0.0
-3550,468,1520,-32,-64,18,2024-01-24 14:09:28,0.0
-3570,449,1516,-21,-23,9,2024-01-24 14:09:28,0.0
-3535,461,1483,-25,-23,12,2024-01-24 14:09:28,0.0
-3587,446,1481,-34,-21,13,2024-01-24 14:09:28,0.0
-3561,450,1444,-34,-24,11,2024-01-24 14:09:29,0.0
-3557,438,1475,-44,-11,10,2024-01-24 14:09:29,0.0
-3556,463,1487,-46,-27,17,2024-01-24 14:09:29,0.0
-3538,445,1522,-37,-22,13,2024-01-24 14:09:29,0.0
-3561,440,1517,-34,-25,13,2024-01-24 14:09:29,0.0
-3559,473,1500,-26,-33,11,2024-01-24 14:09:29,0.0
-3543,469,1468,-19,-26,11,2024-01-24 14:09:29,0.0
-3565,505,1465,-8,-15,7,2024-01-24 14:09:29,0.0
-3537,521,1524,5,22,-18,2024-01-24 14:09:29,0.0
-3557,601,1541,128,32,-56,2024-01-24 14:09:29,0.0
-3524,769,1509,358,-30,-106,2024-01-24 14:09:29,0.0
-3454,684,1455,603,-140,-156,2024-01-24 14:09:29,0.0
-3487,625,1473,756,-183,-212,2024-01-24 14:09:29,0.0
-3533,473,1489,832,-217,-236,2024-01-24 14:09:29,0.0
-3582,472,1441,829,-208,-213,2024-01-24 14:09:29,0.0
-3550,437,1449,726,-180,-183,2024-01-24 14:09:29,0.0
-3572,508,1533,647,-149,-154,2024-01-24 14:09:29,0.0
-3546,485,1503,548,-53,-137,2024-01-24 14:09:30,0.0
-3607,528,1522,446,4,-123,2024-01-24 14:09:30,0.0
-3585,539,1506,353,0,-97,2024-01-24 14:09:30,0.0
-3539,520,1425,281,64,-92,2024-01-24 14:09:30,0.0
-3597,520,1328,192,64,-76,2024-01-24 14:09:30,0.0
-3561,437,1348,68,19,-47,2024-01-24 14:09:30,0.0
-3657,465,1333,-75,84,-15,2024-01-24 14:09:30,0.0
-3592,507,1329,-141,173,-9,2024-01-24 14:09:30,0.0
-3550,439,1345,-219,150,19,2024-01-24 14:09:30,0.0
-3672,466,1309,-289,55,82,2024-01-24 14:09:30,0.0
-3646,477,1208,-332,90,67,2024-01-24 14:09:30,0.0
-3684,514,1189,-374,60,77,2024-01-24 14:09:30,0.0
-3623,464,1223,-418,65,49,2024-01-24 14:09:30,0.0
-3653,442,1243,-467,140,70,2024-01-24 14:09:30,0.0
-3659,441,1177,-496,207,68,2024-01-24 14:09:30,0.0
-3669,439,1086,-519,118,92,2024-01-24 14:09:30,0.0
-3666,487,1110,-500,35,99,2024-01-24 14:09:30,0.0
-3709,434,1072,-476,-5,113,2024-01-24 14:09:30,0.0
-3667,440,1044,-465,-42,99,2024-01-24 14:09:31,0.0
-3746,494,1194,-441,-86,110,2024-01-24 14:09:31,0.0
-3566,473,1559,-328,214,80,2024-01-24 14:09:31,0.0
-3700,415,1055,-206,57,25,2024-01-24 14:09:31,
-3633,445,1115,-66,88,-10,2024-01-24 14:09:31,0.0
-3720,535,986,-6,89,-49,2024-01-24 14:09:31,0.0
-3762,462,897,-25,171,-64,2024-01-24 14:09:31,0.0
-3604,420,932,0,294,-27,2024-01-24 14:09:31,0.0
-3709,340,877,44,84,22,2024-01-24 14:09:31,0.0
-3713,341,822,20,63,89,2024-01-24 14:09:31,0.0
-3879,538,648,7,-17,116,2024-01-24 14:09:31,0.0
-3602,509,988,-6,310,65,2024-01-24 14:09:31,0.0
-3696,295,805,49,30,33,2024-01-24 14:09:31,0.0
-3794,410,698,-6,18,49,2024-01-24 14:09:31,0.0
-3729,452,711,-68,-50,58,2024-01-24 14:09:31,0.0
-3745,385,824,-132,-117,55,2024-01-24 14:09:31,0.0
-3778,485,799,-85,-141,58,2024-01-24 14:09:31,0.0
-3734,544,832,-67,-12,52,2024-01-24 14:09:32,0.0
-3765,493,751,-29,-69,47,2024-01-24 14:09:32,0.0
-3768,502,875,12,7,-3,2024-01-24 14:09:32,0.0
-3705,417,814,-2,21,9,2024-01-24 14:09:32,0.0
-3743,461,852,-4,-23,56,2024-01-24 14:09:32,0.0
-3774,553,803,-12,-15,64,2024-01-24 14:09:32,0.0
-3764,600,877,10,4,19,2024-01-24 14:09:32,0.0
-3768,484,822,52,26,1,2024-01-24 14:09:32,0.0
-3743,461,797,32,17,35,2024-01-24 14:09:32,0.0
-3744,541,742,20,-21,43,2024-01-24 14:09:32,0.0
-3692,569,728,12,-15,20,2024-01-24 14:09:32,0.0
-3740,532,681,3,-54,23,2024-01-24 14:09:32,0.0
-3747,528,727,-6,-10,27,2024-01-24 14:09:32,0.0
-3768,535,721,-13,-33,33,2024-01-24 14:09:32,0.0
-3768,597,672,-26,-42,30,2024-01-24 14:09:32,0.0
-3766,537,713,-23,-7,17,2024-01-24 14:09:32,0.0
-3735,574,710,-19,-25,34,2024-01-24 14:09:32,0.0
-3754,571,719,-31,-16,27,2024-01-24 14:09:32,0.0
-3748,546,703,-5,-21,-3,2024-01-24 14:09:33,0.0
-3764,560,658,-1,-23,-8,2024-01-24 14:09:33,0.0
-3727,569,690,2,-8,7,2024-01-24 14:09:33,0.0
-3735,541,758,22,3,-3,2024-01-24 14:09:33,0.0
-3740,546,674,18,11,5,2024-01-24 14:09:33,0.0
-3742,543,692,1,-7,14,2024-01-24 14:09:33,0.0
-3770,575,675,-14,-47,20,2024-01-24 14:09:33,0.0
-3705,532,735,-6,-24,12,2024-01-24 14:09:33,0.0
-3732,572,698,-12,-44,13,2024-01-24 14:09:33,0.0
-3733,565,702,-22,-34,17,2024-01-24 14:09:33,0.0
-3745,540,715,-37,-40,20,2024-01-24 14:09:33,0.0
-3763,589,678,-43,-30,28,2024-01-24 14:09:33,0.0
-3747,546,670,-48,-44,28,2024-01-24 14:09:33,0.0
-3742,639,729,-45,-34,20,2024-01-24 14:09:33,0.0
-3778,534,671,-17,-67,18,2024-01-24 14:09:33,0.0
-3747,605,737,-29,-42,24,2024-01-24 14:09:33,0.0
-3728,618,700,-25,-51,28,2024-01-24 14:09:33,0.0
-3760,556,703,-24,-68,25,2024-01-24 14:09:34,0.0
-3735,563,698,-30,-41,22,2024-01-24 14:09:34,0.0
-3759,618,737,-29,-45,22,2024-01-24 14:09:34,0.0
-3721,572,743,-26,-44,14,2024-01-24 14:09:34,0.0
-3755,602,717,-30,-27,4,2024-01-24 14:09:34,0.0
-3743,608,725,-22,-25,-9,2024-01-24 14:09:34,0.0
-3695,552,761,-10,-21,-17,2024-01-24 14:09:34,0.0
-3725,578,711,-15,-15,-13,2024-01-24 14:09:34,0.0
-3711,564,782,-20,29,-16,2024-01-24 14:09:34,0.0
-3746,497,691,-20,-6,-3,2024-01-24 14:09:34,0.0
-3740,565,736,-36,-4,20,2024-01-24 14:09:34,0.0
-3738,565,712,-39,-10,26,2024-01-24 14:09:34,0.0
-3715,572,731,-37,-11,14,2024-01-24 14:09:34,0.0
-3764,577,681,-28,-18,-8,2024-01-24 14:09:34,0.0
-3766,558,684,-35,-30,3,2024-01-24 14:09:34,0.0
-3741,561,700,-18,-18,4,2024-01-24 14:09:34,0.0
-3795,526,687,-11,-23,7,2024-01-24 14:09:34,0.0
-3761,542,693,-10,-35,15,2024-01-24 14:09:34,0.0
-3778,532,695,-18,-47,22,2024-01-24 14:09:35,0.0
-3751,548,670,-22,-49,29,2024-01-24 14:09:35,0.0
-3714,559,759,-17,-27,16,2024-01-24 14:09:35,0.0
-3771,595,719,-10,-33,19,2024-01-24 14:09:35,0.0
-3764,519,733,-17,-38,19,2024-01-24 14:09:35,0.0
-3752,548,705,-11,-45,20,2024-01-24 14:09:35,0.0
-3727,545,741,-28,-50,20,2024-01-24 14:09:35,0.0
-3733,555,727,-23,-42,19,2024-01-24 14:09:35,0.0
-3746,542,772,-23,-18,17,2024-01-24 14:09:35,0.0
-3753,550,782,-22,-20,16,2024-01-24 14:09:35,0.0
-3755,551,724,-29,-22,14,2024-01-24 14:09:35,0.0
-3730,540,685,-35,-33,13,2024-01-24 14:09:35,0.0
-3743,552,723,-32,-31,9,2024-01-24 14:09:35,0.0
-3787,560,692,-45,-89,13,2024-01-24 14:09:35,0.0
-3646,590,806,-37,-19,-31,2024-01-24 14:09:35,0.0
-3790,492,757,-44,-83,-54,2024-01-24 14:09:35,0.0
-3769,417,757,-74,-123,-46,2024-01-24 14:09:35,0.0
-3728,407,808,-115,-27,-12,2024-01-24 14:09:36,0.0
-3764,475,880,-158,14,45,2024-01-24 14:09:36,0.0
-3758,587,712,-224,88,6,2024-01-24 14:09:36,0.0
-3809,454,750,-273,10,28,2024-01-24 14:09:36,0.0
-3676,460,711,-240,-29,15,2024-01-24 14:09:36,0.0
-3701,475,765,-271,-51,11,2024-01-24 14:09:36,0.0
-3818,577,827,-142,-83,-12,2024-01-24 14:09:36,0.0
-3707,481,705,-137,-90,-6,2024-01-24 14:09:36,0.0
-3777,424,796,-141,-158,-4,2024-01-24 14:09:36,0.0
-3736,360,839,-190,-94,30,2024-01-24 14:09:36,0.0
-3736,412,858,-209,-54,15,2024-01-24 14:09:36,0.0
-3725,355,836,-386,-131,37,2024-01-24 14:09:36,0.0
-3755,387,922,-361,-109,12,2024-01-24 14:09:36,0.0
-3733,437,973,-399,-173,-14,2024-01-24 14:09:36,0.0
-3701,409,992,-315,-131,-24,2024-01-24 14:09:36,0.0
-3729,351,1029,-313,-97,-13,2024-01-24 14:09:36,0.0
-3686,335,1102,-253,-85,-16,2024-01-24 14:09:36,
-3705,371,1174,-198,-80,-35,2024-01-24 14:09:36,0.0
-3651,280,1173,-145,-28,-27,2024-01-24 14:09:37,0.0
-3753,240,1047,-134,-7,-7,2024-01-24 14:09:37,0.0
-3674,313,1110,-121,36,4,2024-01-24 14:09:37,0.0
-3687,283,1071,-95,46,-15,2024-01-24 14:09:37,0.0
-3723,220,1022,-103,-17,-15,2024-01-24 14:09:37,0.0
-3760,214,1042,-155,-4,0,2024-01-24 14:09:37,0.0
-3677,175,1007,-244,-48,24,2024-01-24 14:09:37,0.0
-3689,127,1046,-288,-36,29,2024-01-24 14:09:37,0.0
-3723,171,1077,-371,-37,51,2024-01-24 14:09:37,0.0
-3693,89,1115,-481,-24,60,2024-01-24 14:09:37,0.0
-3705,86,1132,-561,-38,86,2024-01-24 14:09:37,0.0
-3696,165,1239,-610,-131,100,2024-01-24 14:09:37,0.0
-3684,221,1143,-566,-88,100,2024-01-24 14:09:37,0.0
-3693,254,1097,-479,-43,77,2024-01-24 14:09:37,0.0
-3693,183,1232,-344,-48,14,2024-01-24 14:09:37,0.0
-3774,89,1104,-316,-64,18,2024-01-24 14:09:37,0.0
-3640,111,1235,-243,-92,49,2024-01-24 14:09:37,0.0
-3702,107,1190,-149,-94,22,2024-01-24 14:09:38,0.0
-3655,21,1223,-5,-92,-20,2024-01-24 14:09:38,0.0
-3690,58,1154,39,-137,-36,2024-01-24 14:09:38,0.0
-3708,34,1226,58,-141,-24,2024-01-24 14:09:38,0.0
-3738,97,1181,90,-103,-25,2024-01-24 14:09:38,0.0
-3617,40,1260,120,-38,-38,2024-01-24 14:09:38,0.0
-3639,32,1318,186,-23,-45,2024-01-24 14:09:38,0.0
-3638,122,1282,234,-26,-61,2024-01-24 14:09:38,0.0
-3644,45,1222,259,58,-67,2024-01-24 14:09:38,0.0
-3734,26,1173,279,54,-78,2024-01-24 14:09:38,0.0
-3774,19,1120,213,146,-49,2024-01-24 14:09:38,0.0
-3538,-104,1204,158,218,-38,2024-01-24 14:09:38,0.0
-3767,20,1002,142,147,-65,2024-01-24 14:09:38,0.0
-3741,-37,1076,115,83,-42,2024-01-24 14:09:38,0.0
-3733,-31,1039,100,13,-57,2024-01-24 14:09:38,0.0
-3735,5,1024,73,29,-41,2024-01-24 14:09:38,0.0
-3681,-11,1028,61,15,-40,2024-01-24 14:09:38,0.0
-3744,-57,962,44,27,-52,2024-01-24 14:09:38,0.0
-3792,-65,941,12,32,-25,2024-01-24 14:09:39,0.0
-3729,-34,992,15,42,-23,2024-01-24 14:09:39,0.0
-3724,-49,990,20,2,-7,2024-01-24 14:09:39,0.0
-3759,-34,899,5,13,1,2024-01-24 14:09:39,0.0
-3744,-9,921,-1,6,8,2024-01-24 14:09:39,0.0
-3770,-39,896,10,-14,17,2024-01-24 14:09:39,0.0
-3728,-18,914,21,-17,17,2024-01-24 14:09:39,0.0
-3729,-41,889,16,-23,24,2024-01-24 14:09:39,0.0
-3760,-14,930,8,-33,33,2024-01-24 14:09:39,0.0
-3729,-41,935,14,-31,29,2024-01-24 14:09:39,0.0
-3748,10,893,17,-45,22,2024-01-24 14:09:39,0.0
-3751,1,897,6,-61,27,2024-01-24 14:09:39,0.0
-3761,12,923,26,-78,28,2024-01-24 14:09:39,0.0
-3694,46,948,30,-103,25,2024-01-24 14:09:39,0.0
-3772,23,957,27,-97,33,2024-01-24 14:09:39,0.0
-3734,-20,987,8,-83,25,2024-01-24 14:09:39,0.0
-3741,18,944,-17,-80,31,2024-01-24 14:09:39,0.0
-3752,46,988,-15,-73,31,2024-01-24 14:09:40,0.0
-3700,42,939,-30,-64,36,2024-01-24 14:09:40,0.0
-3750,21,1043,-28,-57,44,2024-01-24 14:09:40,0.0
-3730,78,1003,-10,-57,47,2024-01-24 14:09:40,0.0
-3751,91,1012,29,-74,56,2024-01-24 14:09:40,0.0
-3655,110,1064,59,-52,50,2024-01-24 14:09:40,0.0
-3726,110,1034,75,-57,39,2024-01-24 14:09:40,0.0
-3792,135,985,100,-58,52,2024-01-24 14:09:40,0.0
-3713,114,1036,122,-63,67,2024-01-24 14:09:40,0.0
-3714,150,1114,123,-31,72,2024-01-24 14:09:40,0.0
-3686,136,1002,143,-68,51,2024-01-24 14:09:40,0.0
-3741,237,1106,164,-66,6,2024-01-24 14:09:40,0.0
-3661,168,1093,151,-59,15,2024-01-24 14:09:40,0.0
-3693,149,1126,160,-50,6,2024-01-24 14:09:40,0.0
-3745,190,1153,146,-45,-2,2024-01-24 14:09:40,0.0
-3709,207,1094,144,-37,23,2024-01-24 14:09:40,0.0
-3695,248,1178,55,-40,33,2024-01-24 14:09:40,0.0
-3654,219,1098,25,-31,40,2024-01-24 14:09:40,0.0
-3718,236,1120,40,-53,14,2024-01-24 14:09:41,0.0
-3683,269,1050,41,-59,15,2024-01-24 14:09:41,0.0
-3685,306,1075,52,-77,12,2024-01-24 14:09:41,0.0
-3739,273,1084,79,-63,1,2024-01-24 14:09:41,0.0
-3659,280,1099,74,-53,3,2024-01-24 14:09:41,0.0
-3694,259,1142,70,-101,-9,2024-01-24 14:09:41,0.0
-3693,214,1105,27,-89,8,2024-01-24 14:09:41,0.0
-3707,265,1153,2,-67,17,2024-01-24 14:09:41,0.0
-3640,249,1133,-10,-70,16,2024-01-24 14:09:41,0.0
-3675,275,1173,-24,-72,18,2024-01-24 14:09:41,0.0
-3684,285,1175,-46,-86,19,2024-01-24 14:09:41,0.0
-3716,299,1203,-32,-52,23,2024-01-24 14:09:41,0.0
-3663,282,1207,-26,-1,24,2024-01-24 14:09:41,0.0
-3648,279,1189,-28,-2,19,2024-01-24 14:09:41,0.0
-3683,293,1218,-44,-8,16,2024-01-24 14:09:41,0.0
-3658,242,1169,-44,-11,15,2024-01-24 14:09:41,0.0
-3678,285,1152,-73,8,23,2024-01-24 14:09:41,0.0
-3684,298,1160,-61,8,28,2024-01-24 14:09:42,0.0
-3653,313,1147,-61,0,24,2024-01-24 14:09:42,0.0
-3697,304,1181,-59,-17,25,2024-01-24 14:09:42,0.0
-3671,285,1167,-57,-17,28,2024-01-24 14:09:42,0.0
-3704,263,1190,-60,-34,27,2024-01-24 14:09:42,0.0
-3685,319,1194,-58,-47,21,2024-01-24 14:09:42,0.0
-3646,320,1202,-41,-50,11,2024-01-24 14:09:42,0.0
-3654,290,1177,-43,-47,5,2024-01-24 14:09:42,0.0
-3643,296,1137,-25,-13,-2,2024-01-24 14:09:42,0.0
-3663,259,1134,-27,-16,5,2024-01-24 14:09:42,0.0
-3714,270,1149,-35,-19,5,2024-01-24 14:09:42,0.0
-3699,287,1152,-32,-30,8,2024-01-24 14:09:42,
-3664,220,1126,-50,-20,12,2024-01-24 14:09:42,0.0
-3687,258,1245,-64,-48,21,2024-01-24 14:09:42,0.0
-3679,304,1135,-61,-17,12,2024-01-24 14:09:42,0.0
-3734,233,1164,-59,-33,10,2024-01-24 14:09:42,0.0
-3659,258,1126,-63,-21,23,2024-01-24 14:09:42,0.0
-3673,266,1144,-58,-9,18,2024-01-24 14:09:42,0.0
-3682,263,1157,-47,-14,18,2024-01-24 14:09:43,0.0
-3660,270,1228,-17,-49,10,2024-01-24 14:09:43,0.0
-3698,237,1159,-32,-9,8,2024-01-24 14:09:43,0.0
-3679,231,1130,-16,-20,15,2024-01-24 14:09:43,0.0
-3670,283,1179,-13,-13,15,2024-01-24 14:09:43,0.0
-3652,252,1178,6,-25,10,2024-01-24 14:09:43,0.0
-3708,254,1166,5,-45,12,2024-01-24 14:09:43,0.0
-3688,236,1183,3,-48,10,2024-01-24 14:09:43,0.0
-3711,252,1195,-13,-66,13,2024-01-24 14:09:43,0.0
-3691,237,1182,-47,-43,20,2024-01-24 14:09:43,0.0
-3655,304,1199,-50,-39,15,2024-01-24 14:09:43,0.0
-3673,312,1202,-6,-21,-1,2024-01-24 14:09:43,0.0
-3656,219,1164,21,-49,7,2024-01-24 14:09:43,0.0
-3669,236,1187,5,-67,8,2024-01-24 14:09:43,0.0
-3716,223,1208,-39,-76,17,2024-01-24 14:09:43,0.0
-3696,289,1204,-50,-57,24,2024-01-24 14:09:43,0.0
-3677,337,1182,-24,-11,12,2024-01-24 14:09:43,0.0
-3687,279,1188,14,-4,-8,2024-01-24 14:09:44,0.0
-3723,188,1161,16,-38,15,2024-01-24 14:09:44,0.0
-3655,227,1182,-3,-32,30,2024-01-24 14:09:44,0.0
-3661,287,1223,-42,-33,32,2024-01-24 14:09:44,0.0
-3706,305,1241,-48,-27,36,2024-01-24 14:09:44,0.0
-3630,336,1211,-19,-35,35,2024-01-24 14:09:44,0.0
-3652,275,1206,-12,-74,17,2024-01-24 14:09:44,0.0
-3653,280,1208,-25,-55,17,2024-01-24 14:09:44,0.0
-3698,299,1220,-36,-32,20,2024-01-24 14:09:44,0.0
-3663,263,1183,-22,-22,15,2024-01-24 14:09:44,0.0
-3678,302,1256,-30,-34,13,2024-01-24 14:09:44,0.0
-3659,309,1228,-18,-16,7,2024-01-24 14:09:44,0.0
-3680,319,1243,-20,-25,5,2024-01-24 14:09:44,0.0
-3687,274,1212,-20,-23,11,2024-01-24 14:09:44,0.0
-3685,309,1213,-30,-7,8,2024-01-24 14:09:44,0.0
-3657,300,1211,-38,-8,11,2024-01-24 14:09:44,0.0
-3687,247,1237,-54,-6,16,2024-01-24 14:09:44,0.0
-3634,309,1189,-49,11,18,2024-01-24 14:09:44,0.0
-3689,286,1219,-53,-11,21,2024-01-24 14:09:45,0.0
-3631,304,1205,-48,32,0,2024-01-24 14:09:45,0.0
-3676,239,1136,-47,-22,17,2024-01-24 14:09:45,0.0
-3730,282,1156,-46,-30,13,2024-01-24 14:09:45,0.0
-3691,271,1173,-47,-49,25,2024-01-24 14:09:45,0.0
-3659,279,1221,-47,-38,17,2024-01-24 14:09:45,0.0
-3677,269,1138,-31,-14,19,2024-01-24 14:09:45,0.0
-3677,303,1194,-26,-6,14,2024-01-24 14:09:45,0.0
-3642,285,1203,-21,-5,7,2024-01-24 14:09:45,0.0
-3681,244,1150,-28,-37,8,2024-01-24 14:09:45,0.0
-3667,257,1198,-35,-28,14,2024-01-24 14:09:45,0.0
-3670,285,1209,-24,-42,7,2024-01-24 14:09:45,0.0
-3652,280,1264,-21,-15,3,2024-01-24 14:09:45,0.0
-3616,288,1243,56,-36,-14,2024-01-24 14:09:45,0.0
-3663,326,1170,42,-95,-4,2024-01-24 14:09:45,0.0
-3710,293,1180,70,-92,-40,2024-01-24 14:09:45,0.0
-3672,276,1180,67,-59,-34,2024-01-24 14:09:45,0.0
-3683,217,1179,19,-35,3,2024-01-24 14:09:46,0.0
-3689,200,1180,-74,29,40,2024-01-24 14:09:46,0.0
-3692,242,1146,-119,60,55,2024-01-24 14:09:46,0.0
-3685,285,1144,-121,48,49,2024-01-24 14:09:46,0.0
-3682,267,1158,-151,47,56,2024-01-24 14:09:46,0.0
-3665,245,1131,-168,22,62,2024-01-24 14:09:46,0.0
-3684,252,1113,-167,-6,62,2024-01-24 14:09:46,0.0
-3711,249,1119,-139,-60,61,2024-01-24 14:09:46,0.0
-3685,252,1155,-149,-65,76,2024-01-24 14:09:46,0.0
-3709,325,1115,-147,-54,63,2024-01-24 14:09:46,0.0
-3692,304,1171,-144,-27,55,2024-01-24 14:09:46,0.0
-3646,291,1144,-124,-41,47,2024-01-24 14:09:46,0.0
-3692,308,1171,-99,-36,37,2024-01-24 14:09:46,0.0
-3656,293,1131,-64,-26,31,2024-01-24 14:09:46,0.0
-3680,309,1140,-33,-56,39,2024-01-24 14:09:46,0.0
-3672,353,1159,-9,-67,23,2024-01-24 14:09:46,0.0
-3678,325,1255,13,-96,16,2024-01-24 14:09:46,0.0
-3659,331,1211,3,-54,9,2024-01-24 14:09:46,0.0
-3677,286,1214,11,-92,7,2024-01-24 14:09:47,0.0
-3661,288,1265,-15,-71,3,2024-01-24 14:09:47,0.0
-3613,293,1260,-22,-89,-8,2024-01-24 14:09:47,0.0
-3607,311,1287,-27,-131,-24,2024-01-24 14:09:47,0.0
-3709,249,1232,-35,-161,-18,2024-01-24 14:09:47,0.0
-3645,326,1257,-22,-116,20,2024-01-24 14:09:47,0.0
-3678,331,1298,4,-153,34,2024-01-24 14:09:47,0.0
-3624,303,1335,-5,-111,22,2024-01-24 14:09:47,0.0
-3590,278,1379,-9,-95,46,2024-01-24 14:09:47,0.0
-3659,199,1440,-103,-63,20,2024-01-24 14:09:47,0.0
-3513,244,1480,-187,-23,121,2024-01-24 14:09:47,0.0
-3626,360,1395,-217,-80,45,2024-01-24 14:09:47,0.0
-3546,274,1385,-157,-151,17,2024-01-24 14:09:47,0.0
-3574,347,1454,-194,10,39,2024-01-24 14:09:47,0.0
-3605,261,1496,-160,-3,37,2024-01-24 14:09:47,0.0
-3606,314,1471,-158,-71,43,2024-01-24 14:09:47,0.0
-3613,319,1362,-65,176,-19,2024-01-24 14:09:47,0.0
-3653,266,1419,-88,37,-4,2024-01-24 14:09:48,0.0
-3556,295,1460,-40,4,-6,2024-01-24 14:09:48,0.0
-3607,297,1366,-22,32,-7,2024-01-24 14:09:48,0.0
-3613,319,1418,41,131,-16,2024-01-24 14:09:48,0.0
-3606,286,1320,64,147,-19,2024-01-24 14:09:48,0.0
-3684,311,1278,52,93,-29,2024-01-24 14:09:48,0.0
-3642,287,1192,81,52,-38,2024-01-24 14:09:48,
-3629,357,1224,88,22,-16,2024-01-24 14:09:48,0.0
-3707,177,1242,27,92,-4,2024-01-24 14:09:48,0.0
-3697,118,1346,-19,39,65,2024-01-24 14:09:48,0.0
-3598,331,1160,-71,-32,12,2024-01-24 14:09:48,0.0
-3704,224,1256,-109,-1,-8,2024-01-24 14:09:48,0.0
-3706,191,1204,-161,24,30,2024-01-24 14:09:48,0.0
-3705,236,1077,-107,74,36,2024-01-24 14:09:48,0.0
-3733,291,1017,-42,145,4,2024-01-24 14:09:48,0.0
-3709,304,1012,41,32,-41,2024-01-24 14:09:48,0.0
-3653,273,951,172,-23,-58,2024-01-24 14:09:48,0.0
-3743,344,1115,272,35,-71,2024-01-24 14:09:48,0.0
-3719,253,1232,177,75,-51,2024-01-24 14:09:49,0.0
-3707,62,1105,-6,-16,8,2024-01-24 14:09:49,0.0
-3707,168,994,-113,-29,45,2024-01-24 14:09:49,0.0
-3714,303,990,-134,-119,71,2024-01-24 14:09:49,0.0
-3643,378,1257,-79,-381,45,2024-01-24 14:09:49,0.0
-3522,227,1032,151,186,-82,2024-01-24 14:09:49,0.0
-3802,314,923,212,-2,-64,2024-01-24 14:09:49,0.0
-3817,172,996,190,-169,-65,2024-01-24 14:09:49,0.0
-3729,229,1346,77,-74,-27,2024-01-24 14:09:49,0.0
-3622,136,1007,-92,73,-14,2024-01-24 14:09:49,0.0
-3778,76,904,-207,-26,50,2024-01-24 14:09:49,0.0
-3686,255,1184,-237,-55,57,2024-01-24 14:09:49,0.0
-3704,225,1023,-230,-40,77,2024-01-24 14:09:49,0.0
-3721,285,992,-183,-104,65,2024-01-24 14:09:49,0.0
-3728,280,1076,-86,-143,43,2024-01-24 14:09:49,0.0
-3644,336,1179,-111,0,5,2024-01-24 14:09:49,0.0
-3682,222,1199,-137,58,55,2024-01-24 14:09:49,0.0
-3725,178,1118,-158,57,50,2024-01-24 14:09:50,0.0
-3700,291,1086,-172,-5,26,2024-01-24 14:09:50,0.0
-3728,230,1028,-109,-85,-4,2024-01-24 14:09:50,0.0
-3697,266,1001,-64,7,-1,2024-01-24 14:09:50,0.0
-3761,300,1016,-11,-37,-7,2024-01-24 14:09:50,0.0
-3743,247,1036,37,11,6,2024-01-24 14:09:50,0.0
-3610,318,1302,74,48,-23,2024-01-24 14:09:50,0.0
-3666,248,1340,109,82,-14,2024-01-24 14:09:50,0.0
-3637,189,756,104,47,4,2024-01-24 14:09:50,0.0
-3751,265,945,118,-183,7,2024-01-24 14:09:50,0.0
-3683,158,965,84,-64,-9,2024-01-24 14:09:50,0.0
-3814,240,1091,-27,-462,56,2024-01-24 14:09:50,0.0
-3657,252,1290,-26,-275,41,2024-01-24 14:09:50,0.0
-3596,288,1355,-31,-331,42,2024-01-24 14:09:50,0.0
-3595,211,1340,15,-54,-10,2024-01-24 14:09:50,0.0
-3698,218,1519,-55,220,-20,2024-01-24 14:09:50,0.0
-3615,295,1293,-84,365,-13,2024-01-24 14:09:50,0.0
-3729,176,747,-95,-162,12,2024-01-24 14:09:50,0.0
-3836,309,881,-112,-321,38,2024-01-24 14:09:51,0.0
-3230,229,1798,-69,100,16,2024-01-24 14:09:51,0.0
-3817,231,1407,-138,113,12,2024-01-24 14:09:51,0.0
-3798,346,801,3,-278,7,2024-01-24 14:09:51,0.0
-3641,284,1201,72,24,0,2024-01-24 14:09:51,0.0
-3542,261,1337,75,61,-23,2024-01-24 14:09:51,0.0
-3758,213,1304,101,135,-35,2024-01-24 14:09:51,0.0
-3798,195,1233,27,-91,-14,2024-01-24 14:09:51,0.0
-3497,152,1030,-10,-19,-26,2024-01-24 14:09:51,0.0
-3692,290,1358,9,-62,-22,2024-01-24 14:09:51,0.0
-3674,275,1009,50,32,-34,2024-01-24 14:09:51,0.0
-3738,116,1055,34,-89,-13,2024-01-24 14:09:51,0.0
-3661,113,1278,-14,-39,-7,2024-01-24 14:09:51,0.0
-3596,224,1039,-33,69,2,2024-01-24 14:09:51,0.0
-3753,364,1238,33,-16,-18,2024-01-24 14:09:51,0.0
-3713,251,1268,71,-5,-74,2024-01-24 14:09:51,0.0
-3690,29,1145,-41,34,-45,2024-01-24 14:09:51,0.0
-3738,118,1125,-114,-58,36,2024-01-24 14:09:52,0.0
-3681,92,1135,-160,44,74,2024-01-24 14:09:52,0.0
-3722,420,1125,-127,52,22,2024-01-24 14:09:52,0.0
-3719,115,985,-94,-1,-19,2024-01-24 14:09:52,0.0
-3713,92,1060,-130,86,28,2024-01-24 14:09:52,0.0
-3696,157,1094,-112,92,80,2024-01-24 14:09:52,0.0
-3756,156,926,-151,70,67,2024-01-24 14:09:52,0.0
-3895,232,1151,-124,155,80,2024-01-24 14:09:52,0.0
-3698,359,949,13,-48,32,2024-01-24 14:09:52,0.0
-3664,273,974,52,9,-32,2024-01-24 14:09:52,0.0
-3740,274,1057,116,15,-57,2024-01-24 14:09:52,0.0
-3811,133,1129,67,-10,-59,2024-01-24 14:09:52,0.0
-3657,16,850,-54,-6,12,2024-01-24 14:09:52,0.0
-3784,148,1112,-125,4,17,2024-01-24 14:09:52,0.0
-3764,131,891,-187,112,64,2024-01-24 14:09:52,0.0
-3772,339,730,-138,-105,73,2024-01-24 14:09:52,0.0
-3828,153,1028,8,-122,53,2024-01-24 14:09:52,0.0
-3701,327,926,-57,-166,38,2024-01-24 14:09:53,0.0
-3690,143,1077,8,-43,-8,2024-01-24 14:09:53,0.0
-3740,150,1041,-11,73,14,2024-01-24 14:09:53,0.0
-3622,126,1201,-10,29,-3,2024-01-24 14:09:53,0.0
-3825,247,903,-46,142,3,2024-01-24 14:09:53,0.0
-3757,217,882,4,47,-15,2024-01-24 14:09:53,0.0
-3854,193,673,-41,-40,14,2024-01-24 14:09:53,0.0
-3622,135,977,-61,-229,44,2024-01-24 14:09:53,0.0
-3731,214,1093,-20,-83,-1,2024-01-24 14:09:53,0.0
-3713,128,985,-52,-28,11,2024-01-24 14:09:53,0.0
-3853,151,799,-102,-50,22,2024-01-24 14:09:53,0.0
-3670,236,1135,-127,-92,51,2024-01-24 14:09:53,0.0
-3776,276,1103,-70,-273,34,2024-01-24 14:09:53,0.0
-3679,175,1092,-60,-388,39,2024-01-24 14:09:53,0.0
-3749,183,1256,-89,-288,33,2024-01-24 14:09:53,0.0
-3712,184,1211,-76,-94,40,2024-01-24 14:09:53,0.0
-3620,227,1364,-84,-200,62,2024-01-24 14:09:53,0.0
-3643,295,1264,-52,-87,40,2024-01-24 14:09:53,0.0
-3616,202,1267,-45,-38,19,2024-01-24 14:09:54,0.0
-3667,184,1188,-66,-121,38,2024-01-24 14:09:54,
-3564,200,1320,-71,-49,29,2024-01-24 14:09:54,0.0
-3622,248,1352,-58,-62,30,2024-01-24 14:09:54,0.0
-3677,219,1352,-70,-36,18,2024-01-24 14:09:54,0.0
-3641,218,1294,-64,-30,17,2024-01-24 14:09:54,0.0
-3659,234,1365,-69,-15,16,2024-01-24 14:09:54,0.0
-3663,218,1354,-65,-40,24,2024-01-24 14:09:54,0.0
-3598,236,1367,-64,-22,19,2024-01-24 14:09:54,0.0
-3657,196,1372,-36,-20,13,2024-01-24 14:09:54,0.0
-3639,232,1319,-27,-2,12,2024-01-24 14:09:54,0.0
-3604,237,1356,-19,8,3,2024-01-24 14:09:54,0.0
-3648,216,1371,0,10,-1,2024-01-24 14:09:56,0.0
-3640,214,1317,-3,-10,-3,2024-01-24 14:09:56,0.0
-3619,192,1267,-12,4,-1,2024-01-24 14:09:56,0.0
-3636,259,1273,-25,-16,11,2024-01-24 14:09:56,0.0
-3622,202,1306,-23,-21,10,2024-01-24 14:09:56,0.0
-3638,220,1266,-24,-20,13,2024-01-24 14:09:56,0.0
-3636,227,1249,-39,-24,14,2024-01-24 14:09:56,0.0
-3657,214,1296,-44,-28,12,2024-01-24 14:09:56,0.0
-3673,209,1286,-53,-16,20,2024-01-24 14:09:56,0.0
-3642,203,1288,-37,-28,16,2024-01-24 14:09:56,0.0
-3681,211,1290,-41,-41,13,2024-01-24 14:09:56,0.0
-3665,198,1297,-33,-32,9,2024-01-24 14:09:56,0.0
-3651,230,1280,-29,-22,7,2024-01-24 14:09:56,0.0
-3712,199,1185,-43,-27,12,2024-01-24 14:09:57,0.0
-3660,165,1295,-38,-5,12,2024-01-24 14:09:57,0.0
-3623,195,1246,-31,-10,14,2024-01-24 14:09:57,0.0
-3670,205,1237,-27,4,7,2024-01-24 14:09:57,0.0
-3660,223,1231,-26,19,17,2024-01-24 14:09:57,0.0
-3683,197,1197,-26,-2,9,2024-01-24 14:09:57,0.0
-3632,203,1284,-21,-22,7,2024-01-24 14:09:57,0.0
-3663,225,1236,-23,-20,5,2024-01-24 14:09:57,0.0
-3687,193,1250,-33,-28,10,2024-01-24 14:09:57,0.0
-3681,221,1237,-35,-23,15,2024-01-24 14:09:57,0.0
-3664,211,1277,-30,-29,11,2024-01-24 14:09:57,0.0
-3671,189,1282,-30,-39,12,2024-01-24 14:09:57,0.0
-3705,195,1183,-34,-42,19,2024-01-24 14:09:57,0.0
-3656,212,1194,-29,-18,10,2024-01-24 14:09:57,0.0
-3685,235,1261,-29,-34,12,2024-01-24 14:09:57,0.0
-3644,206,1245,-27,-38,10,2024-01-24 14:09:57,0.0
-3660,198,1204,-28,-33,6,2024-01-24 14:09:57,0.0
-3638,211,1241,-25,-9,6,2024-01-24 14:09:58,0.0
-3677,176,1252,-30,-24,7,2024-01-24 14:09:58,0.0
-3679,195,1229,-29,-15,9,2024-01-24 14:09:58,0.0
-3652,192,1259,-34,-19,9,2024-01-24 14:09:58,0.0
-3679,209,1240,-35,-42,13,2024-01-24 14:09:58,0.0
-3661,239,1209,-34,-26,15,2024-01-24 14:09:58,0.0
-3679,185,1198,-27,-29,11,2024-01-24 14:09:58,0.0
-3684,169,1240,-32,-30,12,2024-01-24 14:09:58,0.0
-3663,208,1255,-19,-7,4,2024-01-24 14:09:58,0.0
-3698,214,1211,-21,-11,6,2024-01-24 14:09:58,0.0
-3676,176,1201,-15,-9,8,2024-01-24 14:09:58,0.0
-3656,221,1222,-36,-18,16,2024-01-24 14:09:58,0.0
-3676,174,1215,-21,17,10,2024-01-24 14:09:58,0.0
-3683,218,1168,-25,17,10,2024-01-24 14:09:58,0.0
-3670,168,1232,-30,-2,14,2024-01-24 14:09:58,0.0
-3683,203,1198,-32,-16,13,2024-01-24 14:09:58,0.0
-3660,195,1145,-41,-24,16,2024-01-24 14:09:58,0.0
-3700,197,1207,-35,-65,20,2024-01-24 14:09:58,0.0
-3691,173,1245,-48,-66,24,2024-01-24 14:09:59,0.0
-3650,213,1205,-36,-66,17,2024-01-24 14:09:59,0.0
-3668,198,1240,-41,-82,21,2024-01-24 14:09:59,0.0
-3692,207,1247,-41,-66,20,2024-01-24 14:09:59,0.0
-3648,229,1233,-39,-79,24,2024-01-24 14:09:59,0.0
-3681,211,1255,-31,-78,23,2024-01-24 14:09:59,0.0
-3639,229,1254,-32,-54,22,2024-01-24 14:09:59,0.0
-3662,203,1187,-26,-49,20,2024-01-24 14:09:59,0.0
-3674,244,1235,-32,-49,23,2024-01-24 14:09:59,0.0
-3650,205,1278,-30,-29,15,2024-01-24 14:09:59,0.0
-3660,243,1242,-31,-43,14,2024-01-24 14:09:59,0.0
-3669,213,1255,-29,-19,11,2024-01-24 14:09:59,0.0
-3628,225,1276,-48,-6,11,2024-01-24 14:09:59,0.0
-3685,228,1273,-38,-4,16,2024-01-24 14:09:59,0.0
-3658,222,1261,-28,-2,7,2024-01-24 14:09:59,0.0
-3698,231,1260,-29,-10,13,2024-01-24 14:09:59,0.0
-3650,212,1243,-37,-1,10,2024-01-24 14:09:59,0.0
-3682,206,1265,-39,-2,9,2024-01-24 14:10:00,0.0
-3682,239,1203,-26,-3,11,2024-01-24 14:10:00,0.0
-3638,175,1226,-19,21,3,2024-01-24 14:10:00,0.0
-3671,234,1222,-12,-2,9,2024-01-24 14:10:00,0.0
-3674,190,1225,-36,-3,13,2024-01-24 14:10:00,0.0
-3710,190,1201,-35,-9,13,2024-01-24 14:10:00,0.0
-3692,198,1223,-37,-30,17,2024-01-24 14:10:00,0.0
-3676,200,1218,-35,-45,20,2024-01-24 14:10:00,0.0
-3667,203,1192,-46,-59,25,2024-01-24 14:10:00,0.0
-3715,247,1292,-36,-61,21,2024-01-24 14:10:00,0.0
-3657,178,1186,-32,-50,28,2024-01-24 14:10:00,0.0
-3658,217,1243,-42,-45,12,2024-01-24 14:10:00,0.0
-3659,228,1229,-38,-53,17,2024-01-24 14:10:00,0.0
-3655,213,1182,-48,-21,22,2024-01-24 14:10:00,0.0
-3686,238,1229,-34,-18,19,2024-01-24 14:10:00,0.0
-3656,235,1258,-36,-20,13,2024-01-24 14:10:00,0.0
-3690,256,1236,-23,-18,13,2024-01-24 14:10:00,0.0
-3677,252,1230,-23,-30,8,2024-01-24 14:10:00,0.0
-3670,201,1232,-17,-21,7,2024-01-24 14:10:01,0.0
-3681,232,1187,-13,-20,7,2024-01-24 14:10:01,0.0
-3698,247,1246,-3,0,6,2024-01-24 14:10:01,0.0
-3714,272,1183,7,-25,2,2024-01-24 14:10:01,0.0
-3661,215,1124,23,-1,-7,2024-01-24 14:10:01,0.0
-3735,224,1175,26,-25,3,2024-01-24 14:10:01,0.0
-3649,222,1272,44,-25,-6,2024-01-24 14:10:01,
-3642,208,1218,46,-50,-4,2024-01-24 14:10:01,0.0
-3684,229,1181,33,-49,-6,2024-01-24 14:10:01,0.0
-3679,207,1196,13,-19,-4,2024-01-24 14:10:01,0.0
-3674,197,1165,-9,-14,5,2024-01-24 14:10:01,0.0
-3677,208,1225,-30,-25,11,2024-01-24 14:10:01,0.0
-3702,237,1164,-40,-32,15,2024-01-24 14:10:01,0.0
-3687,200,1215,-53,-21,10,2024-01-24 14:10:01,0.0
-3686,233,1203,-58,-43,16,2024-01-24 14:10:01,0.0
-3681,206,1256,-53,-26,15,2024-01-24 14:10:01,0.0
-3681,226,1199,-57,-49,6,2024-01-24 14:10:01,0.0
-3657,240,1100,-83,-45,13,2024-01-24 14:10:02,0.0
-3726,164,1205,-68,-107,32,2024-01-24 14:10:02,0.0
-3683,250,1273,-54,-35,44,2024-01-24 14:10:02,0.0
-3612,268,1227,-52,10,23,2024-01-24 14:10:02,0.0
-3623,255,1346,-6,32,-9,2024-01-24 14:10:02,0.0
-3681,224,1069,-47,-47,18,2024-01-24 14:10:02,0.0
-3698,233,1181,-22,-152,12,2024-01-24 14:10:02,0.0
-3671,215,1211,-29,-89,38,2024-01-24 14:10:02,0.0
-3714,237,1366,-30,-38,44,2024-01-24 14:10:02,0.0
-3524,257,1383,-47,69,30,2024-01-24 14:10:02,0.0
-3660,220,1317,-76,108,-32,2024-01-24 14:10:02,0.0
-3683,144,987,-90,-167,24,2024-01-24 14:10:02,0.0
-3782,229,1137,-112,-225,90,2024-01-24 14:10:02,0.0
-3673,183,1402,-96,-162,111,2024-01-24 14:10:02,0.0
-3589,311,1489,-62,87,40,2024-01-24 14:10:02,0.0
-3673,400,1337,56,47,-34,2024-01-24 14:10:02,0.0
-3682,336,1008,170,-31,-37,2024-01-24 14:10:02,0.0
-3692,270,1141,236,52,-54,2024-01-24 14:10:02,0.0
-3665,163,1258,193,104,-38,2024-01-24 14:10:03,0.0
-3678,214,1216,93,133,-14,2024-01-24 14:10:03,0.0
-3706,242,1168,-27,10,-3,2024-01-24 14:10:03,0.0
-3661,176,1049,-108,-21,5,2024-01-24 14:10:03,0.0
-3682,188,1128,-154,-4,42,2024-01-24 14:10:03,0.0
-3711,227,1156,-183,24,51,2024-01-24 14:10:03,0.0
-3659,261,1144,-163,49,43,2024-01-24 14:10:03,0.0
-3666,289,1091,-126,19,30,2024-01-24 14:10:03,0.0
-3742,301,1081,-93,15,14,2024-01-24 14:10:03,0.0
-3713,254,1142,-91,-3,24,2024-01-24 14:10:03,0.0
-3674,265,1114,-42,41,0,2024-01-24 14:10:03,0.0
-3660,257,1115,-17,-15,-31,2024-01-24 14:10:03,0.0
-3742,257,1052,-23,-76,-18,2024-01-24 14:10:03,0.0
-3720,209,1061,-26,10,-7,2024-01-24 14:10:03,0.0
-3707,226,1137,-17,56,4,2024-01-24 14:10:03,0.0
-3685,212,1037,-35,42,1,2024-01-24 14:10:03,0.0
-3769,210,929,-67,-116,18,2024-01-24 14:10:03,0.0
-3709,224,1105,-66,-129,21,2024-01-24 14:10:04,0.0
-3721,230,1117,-19,-32,4,2024-01-24 14:10:04,0.0
-3683,198,1098,-34,-155,18,2024-01-24 14:10:04,0.0
-3708,226,1019,-49,-207,32,2024-01-24 14:10:04,0.0
-3734,240,1123,-53,-128,31,2024-01-24 14:10:04,0.0
-3688,200,1200,-32,-13,15,2024-01-24 14:10:04,0.0
-3644,219,1226,-41,11,21,2024-01-24 14:10:04,0.0
-3710,206,1134,-19,-23,17,2024-01-24 14:10:04,0.0
-3711,219,1138,-23,-9,7,2024-01-24 14:10:04,0.0
-3653,228,1254,-26,32,-2,2024-01-24 14:10:04,0.0
-3691,238,1124,-31,2,10,2024-01-24 14:10:04,0.0
-3694,234,1130,-13,-6,11,2024-01-24 14:10:04,0.0
-3727,221,1082,-21,-15,11,2024-01-24 14:10:04,0.0
-3691,203,1136,-26,5,15,2024-01-24 14:10:04,0.0
-3698,230,1107,-17,-3,13,2024-01-24 14:10:04,0.0
-3711,203,1085,-29,-5,15,2024-01-24 14:10:04,0.0
-3699,208,1086,-33,0,19,2024-01-24 14:10:04,0.0
-3715,252,1086,-26,-12,14,2024-01-24 14:10:04,0.0
-3678,227,1104,-29,4,14,2024-01-24 14:10:05,0.0
-3704,230,1085,-29,-13,12,2024-01-24 14:10:05,0.0
-3765,217,956,-67,-169,28,2024-01-24 14:10:05,0.0
-3703,240,1134,-40,-13,6,2024-01-24 14:10:05,0.0
-3687,224,1172,-17,-78,-2,2024-01-24 14:10:05,0.0
-3643,212,1135,-36,46,1,2024-01-24 14:10:05,0.0
-3751,215,1102,-23,34,11,2024-01-24 14:10:05,0.0
-3679,213,1030,-44,15,12,2024-01-24 14:10:05,0.0
-3771,206,1059,-46,-60,13,2024-01-24 14:10:05,0.0
-3751,224,1102,-34,-33,5,2024-01-24 14:10:05,0.0
-3696,202,1124,-25,8,0,2024-01-24 14:10:05,0.0
-3692,249,1061,-32,2,5,2024-01-24 14:10:05,0.0
-3701,195,939,-32,-53,24,2024-01-24 14:10:05,0.0
-3745,239,1046,-28,-41,12,2024-01-24 14:10:05,0.0
-3709,194,1140,-33,-9,4,2024-01-24 14:10:05,0.0
-3639,217,1143,-48,-7,10,2024-01-24 14:10:05,0.0
-3722,221,975,-44,-44,11,2024-01-24 14:10:05,0.0
-3742,225,994,-55,-94,29,2024-01-24 14:10:06,0.0
-3731,220,1113,-41,-65,21,2024-01-24 14:10:06,0.0
-3651,172,1217,-32,-14,-1,2024-01-24 14:10:06,0.0
-3708,220,1066,-44,-54,12,2024-01-24 14:10:06,0.0
-3765,206,960,-49,-94,17,2024-01-24 14:10:06,0.0
-3746,231,1075,-39,10,13,2024-01-24 14:10:06,0.0
-3623,191,1238,-45,-6,7,2024-01-24 14:10:06,0.0
-3706,211,1166,-51,-69,18,2024-01-24 14:10:06,0.0
-3739,203,1109,-43,-106,30,2024-01-24 14:10:06,0.0
-3679,199,1194,-45,-3,20,2024-01-24 14:10:06,0.0
-3725,176,1209,-58,-99,29,2024-01-24 14:10:06,0.0
-3671,211,1133,-49,-114,23,2024-01-24 14:10:06,0.0
-3653,204,1173,-42,-51,20,2024-01-24 14:10:06,0.0
-3680,202,1178,-33,-48,16,2024-01-24 14:10:06,0.0
-3643,225,1179,-27,-51,16,2024-01-24 14:10:06,0.0
-3665,232,1191,-25,-28,8,2024-01-24 14:10:06,0.0
-3692,220,1186,-12,16,9,2024-01-24 14:10:06,0.0
-3651,224,1191,-23,-28,-1,2024-01-24 14:10:06,0.0
-3746,197,1113,-35,-75,16,2024-01-24 14:10:07,0.0
-3675,219,1214,-27,-2,0,2024-01-24 14:10:07,
-3664,223,1257,-15,45,10,2024-01-24 14:10:07,0.0
-3615,199,1230,-29,85,4,2024-01-24 14:10:07,0.0
-3740,208,1067,-39,-21,27,2024-01-24 14:10:07,0.0
-3744,234,1071,-41,-50,28,2024-01-24 14:10:07,0.0
-3666,199,1169,-36,20,22,2024-01-24 14:10:07,0.0
-3644,230,1188,-37,-14,12,2024-01-24 14:10:07,0.0
-3697,190,1090,-22,-5,3,2024-01-24 14:10:07,0.0
-3733,232,1086,-26,-5,10,2024-01-24 14:10:07,0.0
-3679,228,1150,-30,13,7,2024-01-24 14:10:07,0.0
-3753,210,1088,-32,-74,18,2024-01-24 14:10:07,0.0
-3664,233,1104,-29,-30,13,2024-01-24 14:10:07,0.0
-3702,213,1112,-29,-44,16,2024-01-24 14:10:07,0.0
-3708,223,1131,-29,-25,12,2024-01-24 14:10:07,0.0
-3700,233,1129,-33,-40,16,2024-01-24 14:10:07,0.0
-3732,228,1104,-35,-18,20,2024-01-24 14:10:07,0.0
-3697,256,1101,-35,-20,17,2024-01-24 14:10:08,0.0
-3685,233,1140,-30,-4,11,2024-01-24 14:10:08,0.0
-3678,206,1111,-30,-13,19,2024-01-24 14:10:08,0.0
-3715,223,1084,-28,7,11,2024-01-24 14:10:08,0.0
-3700,204,1120,-22,-19,9,2024-01-24 14:10:08,0.0
-3719,217,1126,-29,-17,14,2024-01-24 14:10:08,0.0
-3735,209,1083,-28,-18,14,2024-01-24 14:10:08,0.0
-3690,224,1080,-30,-13,11,2024-01-24 14:10:08,0.0
-3709,222,1096,-25,-37,15,2024-01-24 14:10:08,0.0
-3704,198,1106,-25,-9,14,2024-01-24 14:10:08,0.0
-3715,226,1115,-30,-19,13,2024-01-24 14:10:08,0.0
-3677,212,1079,-24,-29,12,2024-01-24 14:10:08,0.0
-3702,247,1026,-17,-15,11,2024-01-24 14:10:08,0.0
-3708,230,1103,-12,-12,10,2024-01-24 14:10:08,0.0
-3723,219,1046,2,9,4,2024-01-24 14:10:08,0.0
-3746,229,1056,-6,-27,10,2024-01-24 14:10:08,0.0
-3706,226,1051,-5,-4,7,2024-01-24 14:10:08,0.0
-3712,228,1052,0,-15,12,2024-01-24 14:10:08,0.0
-3747,216,1033,-8,-11,11,2024-01-24 14:10:09,0.0
-3689,239,1073,-10,-29,12,2024-01-24 14:10:09,0.0
-3749,218,1039,-22,-15,15,2024-01-24 14:10:09,0.0
-3709,225,998,-31,-21,18,2024-01-24 14:10:09,0.0
-3741,233,1000,-42,-24,19,2024-01-24 14:10:09,0.0
-3701,221,1060,-44,-17,17,2024-01-24 14:10:09,0.0
-3707,238,1058,-40,-23,17,2024-01-24 14:10:09,0.0
-3735,222,1046,-41,-25,14,2024-01-24 14:10:09,0.0
-3743,241,1026,-40,-32,11,2024-01-24 14:10:09,0.0
-3735,216,1057,-33,-37,12,2024-01-24 14:10:09,0.0
-3702,245,1040,-39,-28,18,2024-01-24 14:10:09,0.0
-3727,220,1014,-37,-34,17,2024-01-24 14:10:09,0.0
-3718,223,1060,-32,-40,14,2024-01-24 14:10:09,0.0
-3705,247,1024,-29,-47,15,2024-01-24 14:10:09,0.0
-3721,229,1083,-34,-19,10,2024-01-24 14:10:09,0.0
-3705,249,1082,-36,-47,17,2024-01-24 14:10:09,0.0
-3701,256,1081,-39,-46,19,2024-01-24 14:10:09,0.0
-3704,237,1069,-41,-41,22,2024-01-24 14:10:10,0.0
-3703,241,1037,-46,-43,21,2024-01-24 14:10:10,0.0
-3702,262,1046,-46,-29,17,2024-01-24 14:10:10,0.0
-3676,230,1053,-52,-38,19,2024-01-24 14:10:10,0.0
-3724,234,1074,-50,-38,16,2024-01-24 14:10:10,0.0
-3683,266,1092,-43,-27,13,2024-01-24 14:10:10,0.0
-3714,255,1050,-29,-27,12,2024-01-24 14:10:10,0.0
-3718,222,1051,-27,-7,5,2024-01-24 14:10:10,0.0
-3709,255,1020,-22,7,1,2024-01-24 14:10:10,0.0
-3683,231,1032,-18,-19,4,2024-01-24 14:10:10,0.0
-3745,227,1009,-19,-22,-1,2024-01-24 14:10:10,0.0
-3713,232,1007,-16,-2,-1,2024-01-24 14:10:10,0.0
-3722,219,1050,-27,-11,5,2024-01-24 14:10:10,0.0
-3713,228,1065,-34,-16,6,2024-01-24 14:10:10,0.0
-3708,216,1069,-45,-20,11,2024-01-24 14:10:10,0.0
-3693,235,1027,-34,-25,11,2024-01-24 14:10:10,0.0
-3721,227,1061,-42,-10,12,2024-01-24 14:10:10,0.0
-3696,215,1038,-39,-29,8,2024-01-24 14:10:11,0.0
-3688,237,1073,-38,-41,11,2024-01-24 14:10:11,0.0
-3690,200,1047,-47,-62,22,2024-01-24 14:10:11,0.0
-3744,214,1001,-70,-70,35,2024-01-24 14:10:11,0.0
-3720,173,1068,-122,-58,36,2024-01-24 14:10:11,0.0
-3725,171,1100,-162,-41,42,2024-01-24 14:10:11,0.0
-3714,209,1138,-161,16,40,2024-01-24 14:10:11,0.0
-3703,192,1049,-169,1,69,2024-01-24 14:10:11,0.0
-3696,231,1024,-160,8,71,2024-01-24 14:10:11,0.0
-3719,274,1069,-117,-31,39,2024-01-24 14:10:11,0.0
-3695,350,1071,-71,-38,19,2024-01-24 14:10:11,0.0
-3722,292,1081,7,8,15,2024-01-24 14:10:11,0.0
-3767,258,986,26,25,40,2024-01-24 14:10:11,0.0
-3746,299,1017,16,-2,63,2024-01-24 14:10:11,0.0
-3669,282,1019,5,40,33,2024-01-24 14:10:11,0.0
-3758,285,944,-18,122,49,2024-01-24 14:10:11,0.0
-3704,330,1034,22,98,58,2024-01-24 14:10:11,0.0
-3694,373,982,38,101,52,2024-01-24 14:10:11,0.0
-3695,286,899,63,73,29,2024-01-24 14:10:12,0.0
-3770,300,853,30,117,23,2024-01-24 14:10:12,0.0
-3727,329,871,40,166,7,2024-01-24 14:10:12,0.0
-3747,340,781,-2,75,19,2024-01-24 14:10:12,0.0
-3761,295,741,-33,12,27,2024-01-24 14:10:12,0.0
-3740,354,772,-62,7,37,2024-01-24 14:10:12,0.0
-3756,348,760,-64,-34,34,2024-01-24 14:10:12,0.0
-3769,355,799,-49,34,28,2024-01-24 14:10:12,0.0
-3738,377,776,-27,-15,39,2024-01-24 14:10:12,0.0
-3757,353,738,-1,-38,38,2024-01-24 14:10:12,0.0
-3750,397,800,6,-22,15,2024-01-24 14:10:12,0.0
-3798,324,729,3,-90,24,2024-01-24 14:10:12,0.0
-3746,364,748,-6,-59,22,2024-01-24 14:10:12,0.0
-3797,360,752,-7,-47,28,2024-01-24 14:10:12,0.0
-3724,363,773,-11,-59,30,2024-01-24 14:10:12,
-3744,383,779,-11,-55,13,2024-01-24 14:10:12,0.0
-3742,395,839,-1,-51,7,2024-01-24 14:10:12,0.0
-3718,373,836,3,-17,-19,2024-01-24 14:10:13,0.0
-3761,351,741,-14,-42,-13,2024-01-24 14:10:13,0.0
-3717,304,738,-61,-12,10,2024-01-24 14:10:13,0.0
-3792,348,806,-68,-26,7,2024-01-24 14:10:13,0.0
-3746,362,769,-84,-51,-22,2024-01-24 14:10:13,0.0
-3743,491,811,-61,-59,-59,2024-01-24 14:10:13,0.0
-3755,385,825,-17,-18,-63,2024-01-24 14:10:13,0.0
-3797,249,764,20,-91,-49,2024-01-24 14:10:13,0.0
-3752,219,783,-24,-156,-18,2024-01-24 14:10:13,0.0
-3720,322,846,-66,-207,-32,2024-01-24 14:10:13,0.0
-3731,285,935,-46,-190,-42,2024-01-24 14:10:13,0.0
-3724,328,980,-23,-210,-59,2024-01-24 14:10:13,0.0
-3784,225,932,-37,-174,-42,2024-01-24 14:10:13,0.0
-3732,279,932,-26,-104,-33,2024-01-24 14:10:13,0.0
-3723,196,1072,-55,-127,-15,2024-01-24 14:10:13,0.0
-3722,201,1088,-68,-65,-1,2024-01-24 14:10:13,0.0
-3740,200,1061,-93,-89,28,2024-01-24 14:10:13,0.0
-3736,222,1087,-97,9,8,2024-01-24 14:10:13,0.0
-3719,240,1069,-82,4,30,2024-01-24 14:10:14,0.0
-3703,212,1066,-77,7,31,2024-01-24 14:10:14,0.0
-3684,251,1115,-54,-12,26,2024-01-24 14:10:14,0.0
-3703,241,1010,-42,-6,22,2024-01-24 14:10:14,0.0
-3679,204,1051,-28,-15,15,2024-01-24 14:10:14,0.0
-3716,242,1061,-8,-9,9,2024-01-24 14:10:14,0.0
-3715,220,1029,7,-46,5,2024-01-24 14:10:14,0.0
-3708,202,1049,-15,-76,6,2024-01-24 14:10:14,0.0
-3724,190,1034,-26,11,7,2024-01-24 14:10:14,0.0
-3714,202,1063,-39,-8,9,2024-01-24 14:10:14,0.0
-3692,224,1076,-42,12,11,2024-01-24 14:10:14,0.0
-3718,226,1007,-43,5,14,2024-01-24 14:10:14,0.0
-3716,244,1012,-28,4,3,2024-01-24 14:10:14,0.0
-3714,209,1028,-24,-20,1,2024-01-24 14:10:14,0.0
-3721,194,1069,-32,-17,10,2024-01-24 14:10:14,0.0
-3740,186,1061,-21,-26,5,2024-01-24 14:10:14,0.0
-3746,202,1002,-20,-28,7,2024-01-24 14:10:14,0.0
-3739,194,1036,-24,23,6,2024-01-24 14:10:15,0.0
-3714,208,972,-30,30,11,2024-01-24 14:10:15,0.0
-3726,222,975,-21,30,11,2024-01-24 14:10:15,0.0
-3761,207,962,-24,-14,12,2024-01-24 14:10:15,0.0
-3735,182,936,-22,-29,9,2024-01-24 14:10:15,0.0
-3751,205,993,-14,-19,7,2024-01-24 14:10:15,0.0
-3747,217,942,-13,-47,15,2024-01-24 14:10:15,0.0
-3718,218,977,-19,-46,13,2024-01-24 14:10:15,0.0
-3727,225,966,-28,-54,17,2024-01-24 14:10:15,0.0
-3741,220,963,-24,-43,11,2024-01-24 14:10:15,0.0
-3737,221,1003,-29,-32,9,2024-01-24 14:10:15,0.0
-3731,199,1003,-39,-33,13,2024-01-24 14:10:15,0.0
-3718,226,972,-32,-9,14,2024-01-24 14:10:15,0.0
-3709,219,1000,-34,-10,18,2024-01-24 14:10:15,0.0
-3741,184,983,-41,-18,19,2024-01-24 14:10:15,0.0
-3742,227,945,-46,-21,17,2024-01-24 14:10:15,0.0
-3715,214,954,-24,-44,13,2024-01-24 14:10:15,0.0
-3725,233,959,-25,-53,12,2024-01-24 14:10:15,0.0
-3721,245,980,-26,-42,15,2024-01-24 14:10:16,0.0
-3685,206,1001,-22,-32,9,2024-01-24 14:10:16,0.0
-3731,214,999,-27,-28,11,2024-01-24 14:10:16,0.0
-3735,204,1008,-32,-28,14,2024-01-24 14:10:16,0.0
-3719,231,971,-36,-15,9,2024-01-24 14:10:16,0.0
-3705,223,1007,-47,-9,10,2024-01-24 14:10:16,0.0
-3730,226,958,-33,-11,15,2024-01-24 14:10:16,0.0
-3727,225,936,-38,-10,7,2024-01-24 14:10:16,0.0
-3729,195,912,-38,-44,14,2024-01-24 14:10:16,0.0
-3737,217,959,-39,-10,10,2024-01-24 14:10:16,0.0
-3716,234,966,-25,-19,11,2024-01-24 14:10:16,0.0
-3743,204,918,-21,-19,13,2024-01-24 14:10:16,0.0
-3739,222,946,-18,-32,6,2024-01-24 14:10:16,0.0
-3727,224,939,-22,-34,11,2024-01-24 14:10:16,0.0
-3730,225,960,-25,-39,10,2024-01-24 14:10:16,0.0
-3727,199,1018,-32,-37,14,2024-01-24 14:10:16,0.0
-3737,228,979,-41,-6,12,2024-01-24 14:10:16,0.0
-3731,206,971,-37,1,7,2024-01-24 14:10:17,0.0
-3785,220,963,-36,-52,25,2024-01-24 14:10:17,0.0
-3716,202,929,-60,-29,37,2024-01-24 14:10:17,0.0
-3736,226,915,-63,-80,30,2024-01-24 14:10:17,0.0
-3729,252,985,-58,-91,16,2024-01-24 14:10:17,0.0
-3729,238,981,-62,-95,18,2024-01-24 14:10:17,0.0
-3729,194,963,-42,-80,24,2024-01-24 14:10:17,0.0
-3716,239,1055,-59,-34,33,2024-01-24 14:10:17,0.0
-3701,241,1069,-56,-16,35,2024-01-24 14:10:17,0.0
-3706,230,977,-75,-46,29,2024-01-24 14:10:17,0.0
-3704,269,1121,-56,-76,43,2024-01-24 14:10:17,0.0
-3716,285,1026,-25,4,24,2024-01-24 14:10:17,0.0
-3702,298,1071,-4,-31,12,2024-01-24 14:10:17,0.0
-3706,267,1048,5,-57,4,2024-01-24 14:10:17,0.0
-3652,269,1081,7,-51,-9,2024-01-24 14:10:17,0.0
-3738,256,1039,36,-22,-25,2024-01-24 14:10:17,0.0
-3746,253,998,16,-54,-13,2024-01-24 14:10:17,0.0
-3708,202,1037,-10,-10,0,2024-01-24 14:10:17,0.0
-3735,211,1016,-11,6,-11,2024-01-24 14:10:18,0.0
-3675,229,1021,-29,9,-5,2024-01-24 14:10:18,0.0
-3719,199,1031,-5,1,-20,2024-01-24 14:10:18,0.0
-3719,226,1069,14,23,-14,2024-01-24 14:10:18,0.0
-3760,195,944,-2,41,12,2024-01-24 14:10:18,0.0
-3730,161,1049,-58,11,26,2024-01-24 14:10:18,0.0
-3725,133,996,-116,-21,43,2024-01-24 14:10:18,0.0
-3733,190,969,-160,-89,73,2024-01-24 14:10:18,0.0
-3727,205,969,-174,-38,97,2024-01-24 14:10:18,0.0
-3723,285,1020,-144,-48,99,2024-01-24 14:10:18,
-3720,285,1004,-111,-30,78,2024-01-24 14:10:18,0.0
-3714,309,988,-47,-7,46,2024-01-24 14:10:18,0.0
-3709,295,1028,-10,24,23,2024-01-24 14:10:18,0.0
-3738,300,1020,2,3,15,2024-01-24 14:10:18,0.0
-3727,300,1017,-29,8,12,2024-01-24 14:10:18,0.0
-3709,245,1020,-38,45,10,2024-01-24 14:10:18,0.0
-3745,338,985,-28,-7,22,2024-01-24 14:10:18,0.0
-3710,305,874,1,-44,-2,2024-01-24 14:10:19,0.0
-3722,285,963,17,-61,-6,2024-01-24 14:10:19,0.0
-3718,304,961,37,-88,-10,2024-01-24 14:10:19,0.0
-3711,312,942,74,-86,-33,2024-01-24 14:10:19,0.0
-3725,274,972,65,-65,-32,2024-01-24 14:10:19,0.0
-3713,279,958,62,-39,-35,2024-01-24 14:10:19,0.0
-3714,262,1006,22,-10,-18,2024-01-24 14:10:19,0.0
-3731,223,970,9,14,-15,2024-01-24 14:10:19,0.0
-3738,218,945,-24,13,-4,2024-01-24 14:10:19,0.0
-3712,193,1045,-61,-2,13,2024-01-24 14:10:19,0.0
-3729,226,967,-58,-73,11,2024-01-24 14:10:19,0.0
-3702,253,969,-67,-10,10,2024-01-24 14:10:19,0.0
-3841,270,1010,-64,-33,7,2024-01-24 14:10:19,0.0
-3685,248,987,-53,-8,11,2024-01-24 14:10:19,0.0
-3724,211,1011,-36,49,2,2024-01-24 14:10:19,0.0
-3744,215,961,-34,14,10,2024-01-24 14:10:19,0.0
-3746,252,922,-32,-13,3,2024-01-24 14:10:19,0.0
-3763,191,960,-33,-32,4,2024-01-24 14:10:19,0.0
-3741,244,920,-21,-73,4,2024-01-24 14:10:20,0.0
-3731,267,958,-16,-34,11,2024-01-24 14:10:20,0.0
-3756,214,884,4,-22,3,2024-01-24 14:10:20,0.0
-3732,213,951,-27,-28,5,2024-01-24 14:10:20,0.0
-3697,226,990,-68,6,7,2024-01-24 14:10:20,0.0
-3747,244,965,-90,-4,18,2024-01-24 14:10:20,0.0
-3744,207,923,-72,-41,19,2024-01-24 14:10:20,0.0
-3747,304,891,-46,-55,19,2024-01-24 14:10:20,0.0
-3731,251,1029,-35,-77,14,2024-01-24 14:10:20,0.0
-3691,246,981,-20,-51,14,2024-01-24 14:10:20,0.0
-3733,206,984,-14,-40,17,2024-01-24 14:10:20,0.0
-3736,241,914,-22,-20,19,2024-01-24 14:10:20,0.0
-3722,236,975,-35,-18,12,2024-01-24 14:10:20,0.0
-3746,256,950,-42,-14,5,2024-01-24 14:10:20,0.0
-3761,205,937,-32,-9,8,2024-01-24 14:10:20,0.0
-3727,249,984,-54,-9,18,2024-01-24 14:10:20,0.0
-3755,221,934,-60,-23,14,2024-01-24 14:10:20,0.0
-3732,234,935,-62,-41,7,2024-01-24 14:10:21,0.0
-3731,249,1009,-45,-47,7,2024-01-24 14:10:21,0.0
-3743,230,994,-37,-20,12,2024-01-24 14:10:21,0.0
-3736,204,966,-33,-16,2,2024-01-24 14:10:21,0.0
-3734,239,939,-27,-10,2,2024-01-24 14:10:21,0.0
-3740,210,954,-21,-14,2,2024-01-24 14:10:21,0.0
-3756,215,960,-31,-6,10,2024-01-24 14:10:21,0.0
-3798,200,931,-38,7,-1,2024-01-24 14:10:21,0.0
-3734,226,927,-39,-2,2,2024-01-24 14:10:21,0.0
-3769,214,934,-43,-19,9,2024-01-24 14:10:21,0.0
-3743,205,891,-38,-30,7,2024-01-24 14:10:21,0.0
-3745,238,931,-40,-36,13,2024-01-24 14:10:21,0.0
-3781,207,909,-30,-28,10,2024-01-24 14:10:21,0.0
-3744,193,886,-27,-2,13,2024-01-24 14:10:21,0.0
-3809,235,829,-41,-105,26,2024-01-24 14:10:21,0.0
-3685,217,1020,-27,60,14,2024-01-24 14:10:21,0.0
-3751,220,941,-24,-54,15,2024-01-24 14:10:21,0.0
-3710,181,911,-42,-30,23,2024-01-24 14:10:21,0.0
-3709,262,909,-48,-4,27,2024-01-24 14:10:22,0.0
-3731,189,931,-33,-84,20,2024-01-24 14:10:22,0.0
-3750,222,989,-39,-83,21,2024-01-24 14:10:22,0.0
-3724,200,987,-45,-79,15,2024-01-24 14:10:22,0.0
-3781,238,965,-31,-43,18,2024-01-24 14:10:22,0.0
-3722,220,907,-17,-55,17,2024-01-24 14:10:22,0.0
-3754,191,996,-47,-56,15,2024-01-24 14:10:22,0.0
-3704,283,985,-47,-45,19,2024-01-24 14:10:22,0.0
-3763,209,1006,-37,-52,17,2024-01-24 14:10:22,0.0
-3736,226,986,-32,-41,15,2024-01-24 14:10:22,0.0
-3707,233,952,-42,-8,13,2024-01-24 14:10:22,0.0
-3721,259,987,-33,-19,14,2024-01-24 14:10:22,0.0
-3703,223,968,-24,-19,12,2024-01-24 14:10:22,0.0
-3736,219,932,-28,-6,6,2024-01-24 14:10:22,0.0
-3718,236,908,-32,-26,15,2024-01-24 14:10:22,0.0
-3733,248,958,-26,-22,8,2024-01-24 14:10:22,0.0
-3743,249,968,-28,-33,11,2024-01-24 14:10:22,0.0
-3729,252,966,-37,-24,10,2024-01-24 14:10:23,0.0
-3726,234,940,-36,-24,10,2024-01-24 14:10:23,0.0
-3728,231,925,-33,-15,4,2024-01-24 14:10:23,0.0
-3762,246,934,-40,-11,7,2024-01-24 14:10:23,0.0
-3746,238,918,-38,-21,4,2024-01-24 14:10:23,0.0
-3736,225,944,-36,-2,3,2024-01-24 14:10:23,0.0
-3743,257,913,-32,-7,0,2024-01-24 14:10:23,0.0
-3752,210,905,-34,-9,-3,2024-01-24 14:10:23,0.0
-3768,203,923,-39,-25,5,2024-01-24 14:10:23,0.0
-3755,190,926,-39,-17,6,2024-01-24 14:10:23,0.0
-3749,213,930,-47,-36,11,2024-01-24 14:10:23,0.0
-3729,195,919,-52,-30,13,2024-01-24 14:10:23,0.0
-3738,243,936,-59,-35,14,2024-01-24 14:10:23,0.0
-3762,198,878,-55,-41,11,2024-01-24 14:10:23,0.0
-3733,234,940,-52,-28,16,2024-01-24 14:10:23,0.0
-3742,239,908,-43,-16,9,2024-01-24 14:10:23,0.0
-3756,204,928,-30,-17,11,2024-01-24 14:10:23,0.0
-3748,202,947,-26,-35,14,2024-01-24 14:10:23,0.0
-3765,200,943,-25,-17,9,2024-01-24 14:10:24,0.0
-3764,202,945,-24,-43,15,2024-01-24 14:10:24,0.0
-3743,215,938,-27,-16,18,2024-01-24 14:10:24,0.0
-3770,196,913,-30,-19,18,2024-01-24 14:10:24,0.0
-3740,236,961,-37,-22,17,2024-01-24 14:10:24,
-3757,241,908,-34,-24,17,2024-01-24 14:10:24,0.0
-3734,176,904,-35,-10,22,2024-01-24 14:10:24,0.0
-3749,212,1001,-42,-40,13,2024-01-24 14:10:24,0.0
-3734,230,909,-43,-36,30,2024-01-24 14:10:24,0.0
-3713,214,1013,-33,1,10,2024-01-24 14:10:24,0.0
-3712,222,916,-26,-23,22,2024-01-24 14:10:24,0.0
-3720,206,927,-33,-58,11,2024-01-24 14:10:24,0.0
-3770,244,935,-41,-77,15,2024-01-24 14:10:24,0.0
-3760,199,951,-44,-60,15,2024-01-24 14:10:24,0.0
-3748,211,931,-46,-62,21,2024-01-24 14:10:24,0.0
-3730,236,951,-46,-38,17,2024-01-24 14:10:24,0.0
-3714,245,995,-51,-58,19,2024-01-24 14:10:24,0.0
-3733,214,1001,-47,-52,16,2024-01-24 14:10:25,0.0
-3745,210,954,-54,-36,18,2024-01-24 14:10:25,0.0
-3734,247,974,-60,-15,14,2024-01-24 14:10:25,0.0
-3740,256,996,-62,-24,20,2024-01-24 14:10:25,0.0
-3721,250,981,-44,-30,17,2024-01-24 14:10:25,0.0
-3740,223,971,-42,-22,13,2024-01-24 14:10:25,0.0
-3731,234,953,-34,-23,12,2024-01-24 14:10:25,0.0
-3735,231,967,-31,-20,11,2024-01-24 14:10:25,0.0
-3766,224,984,-27,-35,14,2024-01-24 14:10:25,0.0
-3722,233,977,-28,-27,12,2024-01-24 14:10:25,0.0
-3729,239,959,-26,-43,13,2024-01-24 14:10:25,0.0
-3770,201,986,-29,-48,12,2024-01-24 14:10:25,0.0
-3711,204,997,-35,-53,14,2024-01-24 14:10:25,0.0
-3751,206,1021,-45,-35,16,2024-01-24 14:10:25,0.0
-3709,215,1011,-57,-17,16,2024-01-24 14:10:25,0.0
-3719,224,1015,-44,-28,22,2024-01-24 14:10:25,0.0
-3731,212,957,-37,-24,14,2024-01-24 14:10:25,0.0
-3759,230,962,-42,-36,19,2024-01-24 14:10:25,0.0
-3749,227,996,-44,-29,18,2024-01-24 14:10:26,0.0
-3719,223,989,-39,2,18,2024-01-24 14:10:26,0.0
-3734,244,958,-27,6,12,2024-01-24 14:10:26,0.0
-3718,242,943,-30,-7,11,2024-01-24 14:10:26,0.0
-3736,236,950,-35,-16,16,2024-01-24 14:10:26,0.0
-3710,220,964,-33,8,13,2024-01-24 14:10:26,0.0
-3714,237,992,-23,-12,10,2024-01-24 14:10:26,0.0
-3715,229,969,-19,37,1,2024-01-24 14:10:26,0.0
-3757,224,889,-20,2,11,2024-01-24 14:10:26,0.0
-3770,224,906,-27,29,11,2024-01-24 14:10:26,0.0
-3755,230,929,-47,21,15,2024-01-24 14:10:26,0.0
-3726,250,887,-48,2,18,2024-01-24 14:10:26,0.0
-3711,221,880,-34,-12,15,2024-01-24 14:10:26,0.0
-3730,206,851,-43,-12,20,2024-01-24 14:10:26,0.0
-3747,220,907,-35,-15,19,2024-01-24 14:10:26,0.0
-3724,237,930,-24,-16,14,2024-01-24 14:10:26,0.0
-3765,241,852,-22,-34,16,2024-01-24 14:10:26,0.0
-3752,214,831,-37,-39,20,2024-01-24 14:10:27,0.0
-3720,231,956,-50,-20,26,2024-01-24 14:10:27,0.0
-3779,230,881,-7,-72,10,2024-01-24 14:10:27,0.0
-3757,305,859,-13,-73,13,2024-01-24 14:10:27,0.0
-3788,238,812,-27,-105,29,2024-01-24 14:10:27,0.0
-3745,213,903,-63,-126,46,2024-01-24 14:10:27,0.0
-3730,161,901,-91,-87,78,2024-01-24 14:10:27,0.0
-3735,270,1007,-107,-64,92,2024-01-24 14:10:27,0.0
-3709,280,1086,-84,-35,55,2024-01-24 14:10:27,0.0
-3689,299,1119,-57,12,24,2024-01-24 14:10:27,0.0
-3776,360,1020,-49,22,1,2024-01-24 14:10:27,0.0
-3759,317,887,-34,-23,3,2024-01-24 14:10:27,0.0
-3709,368,902,6,-48,-27,2024-01-24 14:10:27,0.0
-3683,275,968,63,0,-67,2024-01-24 14:10:27,0.0
-3718,345,1015,150,37,-104,2024-01-24 14:10:27,0.0
-3692,285,849,263,73,-113,2024-01-24 14:10:27,0.0
-3788,111,850,252,-59,-31,2024-01-24 14:10:27,0.0
-3777,105,882,183,-9,-5,2024-01-24 14:10:27,0.0
-3713,129,993,36,-45,43,2024-01-24 14:10:28,0.0
-3880,227,968,4,-113,46,2024-01-24 14:10:28,0.0
-3681,190,884,-124,-57,76,2024-01-24 14:10:28,0.0
-3757,209,871,-182,-23,61,2024-01-24 14:10:28,0.0
-3766,67,915,-361,-8,92,2024-01-24 14:10:28,0.0
-3802,138,851,-485,6,103,2024-01-24 14:10:28,0.0
-3727,287,917,-514,134,88,2024-01-24 14:10:28,0.0
-3717,360,852,-433,114,88,2024-01-24 14:10:28,0.0
-3759,449,821,-318,15,30,2024-01-24 14:10:28,0.0
-3733,386,851,-166,-10,8,2024-01-24 14:10:28,0.0
-3756,345,884,-26,8,-8,2024-01-24 14:10:28,0.0
-3776,333,849,109,16,-23,2024-01-24 14:10:28,0.0
-3719,258,835,188,48,-24,2024-01-24 14:10:28,0.0
-3771,309,777,256,-9,-35,2024-01-24 14:10:28,0.0
-3787,204,798,227,-11,-26,2024-01-24 14:10:28,0.0
-3774,211,849,217,16,-20,2024-01-24 14:10:28,0.0
-3767,220,800,170,-1,-5,2024-01-24 14:10:28,0.0
-3817,255,791,71,56,2,2024-01-24 14:10:29,0.0
-3773,230,713,54,32,26,2024-01-24 14:10:29,0.0
-3822,258,658,46,-42,25,2024-01-24 14:10:29,0.0
-3765,293,706,21,-93,42,2024-01-24 14:10:29,0.0
-3746,250,683,-19,-18,21,2024-01-24 14:10:29,0.0
-3765,252,714,-90,-27,41,2024-01-24 14:10:29,0.0
-3809,203,673,-163,-132,65,2024-01-24 14:10:29,0.0
-3763,244,731,-243,-127,66,2024-01-24 14:10:29,0.0
-3691,310,845,-264,-83,57,2024-01-24 14:10:29,0.0
-3755,325,863,-292,-19,-5,2024-01-24 14:10:29,0.0
-3748,293,760,-288,31,-17,2024-01-24 14:10:29,0.0
-3788,285,849,-209,28,-2,2024-01-24 14:10:29,0.0
-3701,335,833,-101,63,-11,2024-01-24 14:10:29,0.0
-3801,330,837,-22,9,-36,2024-01-24 14:10:29,0.0
-3732,307,833,103,-81,-40,2024-01-24 14:10:29,0.0
-3728,245,793,189,-198,-67,2024-01-24 14:10:29,0.0
-3752,176,862,195,-234,-42,2024-01-24 14:10:29,0.0
-3780,172,808,151,-163,-4,2024-01-24 14:10:30,
-3730,234,972,118,-89,23,2024-01-24 14:10:30,0.0
-3798,270,895,58,-59,20,2024-01-24 14:10:30,0.0
-3733,191,906,45,-52,19,2024-01-24 14:10:30,0.0
-3768,228,879,-6,-59,36,2024-01-24 14:10:30,0.0
-3740,183,867,-76,-12,61,2024-01-24 14:10:30,0.0
-3758,188,822,-164,55,61,2024-01-24 14:10:30,0.0
-3736,256,879,-194,86,45,2024-01-24 14:10:30,0.0
-3765,221,952,-223,72,35,2024-01-24 14:10:30,0.0
-3797,287,888,-210,108,21,2024-01-24 14:10:30,0.0
-3713,223,779,-203,-30,42,2024-01-24 14:10:30,0.0
-3775,283,859,-179,-68,21,2024-01-24 14:10:30,0.0
-3769,291,761,-118,-48,30,2024-01-24 14:10:30,0.0
-3723,302,828,-55,-76,30,2024-01-24 14:10:31,0.0
-3742,279,892,-14,-123,2,2024-01-24 14:10:32,0.0
-3701,249,988,16,-93,4,2024-01-24 14:10:32,0.0
-3724,267,901,39,-75,-5,2024-01-24 14:10:32,0.0
-3756,246,938,21,-76,-1,2024-01-24 14:10:32,0.0
-3801,219,867,-17,-112,0,2024-01-24 14:10:32,0.0
-3719,227,940,-29,-17,13,2024-01-24 14:10:32,0.0
-3768,191,965,-49,-38,10,2024-01-24 14:10:32,0.0
-3742,250,927,-58,-31,11,2024-01-24 14:10:32,0.0
-3725,252,940,-39,-32,6,2024-01-24 14:10:32,0.0
-3746,241,985,-365,-95,91,2024-01-24 14:10:33,0.0
-3691,347,988,-238,-30,32,2024-01-24 14:10:33,0.0
-3689,302,1020,-95,30,-13,2024-01-24 14:10:33,0.0
-3749,280,945,26,-1,-19,2024-01-24 14:10:33,0.0
-3716,220,1028,126,-27,-26,2024-01-24 14:10:33,0.0
-3711,141,1029,159,-6,-28,2024-01-24 14:10:33,0.0
-3708,145,1028,159,-13,-17,2024-01-24 14:10:33,0.0
-3764,108,920,112,-24,-10,2024-01-24 14:10:33,0.0
-3730,30,958,26,21,-5,2024-01-24 14:10:33,0.0
-3735,76,914,-73,1,10,2024-01-24 14:10:33,0.0
-3755,81,920,-160,-28,21,2024-01-24 14:10:33,0.0
-3749,138,988,-216,-16,32,2024-01-24 14:10:33,0.0
-3755,130,951,-261,24,48,2024-01-24 14:10:33,0.0
-3768,151,890,-266,6,53,2024-01-24 14:10:33,0.0
-3737,128,979,-302,33,67,2024-01-24 14:10:33,0.0
-3749,106,977,-327,25,55,2024-01-24 14:10:33,0.0
-3731,123,919,-328,-14,60,2024-01-24 14:10:33,0.0
-3734,172,928,-314,-30,54,2024-01-24 14:10:34,0.0
-3721,232,903,-252,-5,46,2024-01-24 14:10:34,0.0
-3734,211,889,-146,-68,34,2024-01-24 14:10:34,0.0
-3760,276,896,-27,-41,16,2024-01-24 14:10:34,0.0
-3711,260,978,107,-79,-5,2024-01-24 14:10:34,0.0
-3722,198,948,205,-95,-18,2024-01-24 14:10:34,0.0
-3694,221,966,286,-80,-26,2024-01-24 14:10:34,0.0
-3729,196,957,345,-107,-26,2024-01-24 14:10:34,0.0
-3745,192,987,384,-276,-20,2024-01-24 14:10:34,0.0
-3696,282,1156,439,-243,-74,2024-01-24 14:10:34,0.0
-3671,177,1231,444,-194,-96,2024-01-24 14:10:34,0.0
-3813,133,1161,403,-94,-61,2024-01-24 14:10:34,0.0
-3633,111,1082,362,-75,-51,2024-01-24 14:10:34,0.0
-3735,219,1263,278,-95,-40,2024-01-24 14:10:34,0.0
-3652,163,1032,248,69,-50,2024-01-24 14:10:34,0.0
-3693,124,1056,160,-44,-34,2024-01-24 14:10:34,0.0
-3705,95,1182,96,22,-24,2024-01-24 14:10:34,0.0
-3742,144,920,-56,70,10,2024-01-24 14:10:35,0.0
-3690,68,1041,-127,48,26,2024-01-24 14:10:35,0.0
-3640,143,1058,-239,53,69,2024-01-24 14:10:35,0.0
-3685,189,1054,-253,16,59,2024-01-24 14:10:35,0.0
-3791,166,1070,-361,-103,62,2024-01-24 14:10:35,0.0
-3730,134,1102,-405,-81,73,2024-01-24 14:10:35,0.0
-3769,200,1020,-472,55,86,2024-01-24 14:10:35,0.0
-3694,242,1113,-509,66,81,2024-01-24 14:10:35,0.0
-3767,115,1054,-459,-116,104,2024-01-24 14:10:35,0.0
-3622,187,1225,-472,-151,123,2024-01-24 14:10:35,0.0
-3722,138,1246,-534,-38,143,2024-01-24 14:10:35,0.0
-3614,308,1169,-500,-89,137,2024-01-24 14:10:35,0.0
-3698,257,1137,-455,-156,125,2024-01-24 14:10:35,0.0
-3637,254,1240,-337,-139,76,2024-01-24 14:10:35,0.0
-3636,115,1240,-287,-22,62,2024-01-24 14:10:35,0.0
-3629,211,1306,-242,-14,56,2024-01-24 14:10:35,0.0
-3673,234,1292,-179,19,34,2024-01-24 14:10:35,0.0
-3684,260,1197,-83,12,28,2024-01-24 14:10:35,0.0
-3655,265,1248,38,-27,-4,2024-01-24 14:10:36,0.0
-3635,228,1229,91,-139,-10,2024-01-24 14:10:36,0.0
-3650,146,1206,130,-115,-47,2024-01-24 14:10:36,0.0
-3677,155,1233,129,-72,-46,2024-01-24 14:10:36,0.0
-3702,84,1270,82,-51,-27,2024-01-24 14:10:36,0.0
-3675,161,1266,-5,-34,-15,2024-01-24 14:10:36,0.0
-3692,238,1312,-28,-24,21,2024-01-24 14:10:36,0.0
-3645,281,1339,-26,-86,2,2024-01-24 14:10:36,0.0
-3635,275,1307,-26,-76,9,2024-01-24 14:10:36,0.0
-3656,174,1365,-21,-63,-9,2024-01-24 14:10:36,0.0
-3627,146,1302,11,-69,-11,2024-01-24 14:10:36,0.0
-3584,131,1342,59,-56,5,2024-01-24 14:10:36,0.0
-3754,146,1323,85,-61,-43,2024-01-24 14:10:36,0.0
-3619,46,1294,36,15,1,2024-01-24 14:10:36,0.0
-3680,56,1315,-21,3,4,2024-01-24 14:10:36,0.0
-3660,229,1306,-38,16,15,2024-01-24 14:10:36,0.0
-3666,98,1248,1,-37,0,2024-01-24 14:10:36,0.0
-3656,102,1310,-5,-58,-9,2024-01-24 14:10:37,0.0
-3626,40,1360,-13,-24,-11,2024-01-24 14:10:37,0.0
-3705,106,1319,-34,-42,17,2024-01-24 14:10:37,0.0
-3592,171,1327,-14,-61,9,2024-01-24 14:10:37,0.0
-3676,162,1373,42,-64,28,2024-01-24 14:10:37,0.0
-3585,97,1406,33,-51,-5,2024-01-24 14:10:37,0.0
-3617,135,1346,4,-39,3,2024-01-24 14:10:37,0.0
-3687,150,1356,-1,4,1,2024-01-24 14:10:37,0.0
-3625,182,1331,10,2,-8,2024-01-24 14:10:37,
-3644,144,1292,3,-8,-18,2024-01-24 14:10:37,0.0
-3670,165,1327,24,50,-32,2024-01-24 14:10:37,0.0
-3617,190,1289,125,57,-65,2024-01-24 14:10:37,0.0
-3668,143,1247,173,-8,-54,2024-01-24 14:10:37,0.0
-3668,91,1293,191,-4,-34,2024-01-24 14:10:37,0.0
-3637,59,1241,165,29,-22,2024-01-24 14:10:37,0.0
-3667,176,1245,103,-98,-30,2024-01-24 14:10:37,0.0
-3644,70,1259,48,-47,-5,2024-01-24 14:10:37,0.0
-3689,67,1252,9,-14,23,2024-01-24 14:10:37,0.0
-3653,205,1331,2,75,14,2024-01-24 14:10:38,0.0
-3682,134,1193,-18,44,17,2024-01-24 14:10:38,0.0
-3632,134,1254,-27,0,36,2024-01-24 14:10:38,0.0
-3653,247,1229,32,2,26,2024-01-24 14:10:38,0.0
-3721,271,1209,130,-46,2,2024-01-24 14:10:38,0.0
-3646,194,1197,193,-47,-10,2024-01-24 14:10:38,0.0
-3665,241,1209,259,-73,-32,2024-01-24 14:10:38,0.0
-3660,222,1194,231,-56,-56,2024-01-24 14:10:38,0.0
-3714,141,1209,214,-59,-56,2024-01-24 14:10:38,0.0
-3692,167,1210,181,-10,-29,2024-01-24 14:10:38,0.0
-3632,187,1290,128,47,-13,2024-01-24 14:10:38,0.0
-3691,198,1124,71,72,-4,2024-01-24 14:10:38,0.0
-3782,243,1102,24,-82,-6,2024-01-24 14:10:38,0.0
-3666,173,1084,39,3,3,2024-01-24 14:10:38,0.0
-3673,189,1180,-9,-10,12,2024-01-24 14:10:38,0.0
-3692,170,1125,-47,-64,32,2024-01-24 14:10:38,0.0
-3719,211,1170,-68,-139,37,2024-01-24 14:10:38,0.0
-3704,235,1159,-78,-45,40,2024-01-24 14:10:39,0.0
-3625,236,1222,-62,11,19,2024-01-24 14:10:39,0.0
-3675,216,1259,-85,-42,25,2024-01-24 14:10:39,0.0
-3713,266,1162,-79,-108,32,2024-01-24 14:10:39,0.0
-3645,224,1264,-98,-55,24,2024-01-24 14:10:39,0.0
-3680,239,1300,-78,-29,27,2024-01-24 14:10:39,0.0
-3697,228,1151,-78,-32,34,2024-01-24 14:10:39,0.0
-3610,249,1192,-140,15,30,2024-01-24 14:10:39,0.0
-3682,256,1147,-148,57,20,2024-01-24 14:10:39,0.0
-3720,189,1142,-174,0,17,2024-01-24 14:10:39,0.0
-3687,202,1204,-161,22,-9,2024-01-24 14:10:39,0.0
-3673,289,1169,-163,42,-16,2024-01-24 14:10:39,0.0
-3704,164,1131,-128,73,3,2024-01-24 14:10:39,0.0
-3680,183,1056,-111,75,-1,2024-01-24 14:10:39,0.0
-3698,184,1117,-124,85,5,2024-01-24 14:10:39,0.0
-3676,176,1097,-123,35,9,2024-01-24 14:10:39,0.0
-3735,192,1104,-105,15,9,2024-01-24 14:10:39,0.0
-3710,154,1030,-90,35,-7,2024-01-24 14:10:39,0.0
-3734,142,1055,-90,19,-5,2024-01-24 14:10:40,0.0
-3716,144,1055,-67,21,-19,2024-01-24 14:10:40,0.0
-3715,140,1052,-58,11,-15,2024-01-24 14:10:40,0.0
-3732,124,1069,-60,8,-9,2024-01-24 14:10:40,0.0
-3736,128,1043,-59,15,-11,2024-01-24 14:10:40,0.0
-3739,80,1023,-61,-1,-4,2024-01-24 14:10:40,0.0
-3740,107,1023,-74,-27,-2,2024-01-24 14:10:40,0.0
-3707,79,998,-62,-32,7,2024-01-24 14:10:40,0.0
-3739,89,1004,-56,-14,3,2024-01-24 14:10:40,0.0
-3710,50,1016,-72,-18,9,2024-01-24 14:10:40,0.0
-3748,76,1011,-73,-18,2,2024-01-24 14:10:40,0.0
-3724,36,1033,-76,11,-2,2024-01-24 14:10:40,0.0
-3741,89,1000,-72,-8,-3,2024-01-24 14:10:40,0.0
-3729,52,1004,-67,-40,6,2024-01-24 14:10:40,0.0
-3725,46,1001,-46,-45,4,2024-01-24 14:10:40,0.0
-3730,77,997,-56,-40,19,2024-01-24 14:10:40,0.0
-3717,69,1029,-36,-39,18,2024-01-24 14:10:40,0.0
-3750,73,1004,-30,-56,23,2024-01-24 14:10:41,0.0
-3724,60,1024,-28,-61,29,2024-01-24 14:10:41,0.0
-3704,66,1024,-33,-74,41,2024-01-24 14:10:41,0.0
-3751,96,1074,-11,-92,41,2024-01-24 14:10:41,0.0
-3685,133,1077,0,-67,35,2024-01-24 14:10:41,0.0
-3755,94,1087,12,-92,33,2024-01-24 14:10:41,0.0
-3695,98,1046,2,-97,38,2024-01-24 14:10:41,0.0
-3677,107,1073,6,-83,33,2024-01-24 14:10:41,0.0
-3701,128,1102,1,-70,32,2024-01-24 14:10:41,0.0
-3735,131,1117,26,-26,35,2024-01-24 14:10:41,0.0
-3758,176,1136,16,-47,20,2024-01-24 14:10:41,0.0
-3627,165,1093,39,-56,49,2024-01-24 14:10:41,0.0
-3729,166,1095,45,-34,31,2024-01-24 14:10:41,0.0
-3720,252,1195,24,-75,17,2024-01-24 14:10:41,0.0
-3656,191,1142,-3,-154,55,2024-01-24 14:10:41,0.0
-3677,157,1174,46,-11,22,2024-01-24 14:10:41,0.0
-3738,232,1125,2,-105,37,2024-01-24 14:10:41,0.0
-3656,221,1187,-1,-51,42,2024-01-24 14:10:41,0.0
-3627,164,1202,14,-58,24,2024-01-24 14:10:42,0.0
-3677,213,1282,23,-116,-15,2024-01-24 14:10:42,0.0
-3653,200,1253,32,-112,-17,2024-01-24 14:10:42,0.0
-3672,186,1237,105,-248,-64,2024-01-24 14:10:42,0.0
-3562,152,1311,186,-246,-23,2024-01-24 14:10:42,0.0
-3788,323,1304,470,-133,-54,2024-01-24 14:10:42,0.0
-3698,225,1316,717,-195,-191,2024-01-24 14:10:42,0.0
-3564,120,1381,870,-145,-201,2024-01-24 14:10:42,0.0
-3656,-38,1473,897,-99,-260,2024-01-24 14:10:42,0.0
-3641,-100,1439,791,-82,-217,2024-01-24 14:10:42,0.0
-3624,-40,1378,683,-21,-156,2024-01-24 14:10:42,0.0
-3657,230,1441,558,-55,-115,2024-01-24 14:10:42,0.0
-3581,150,1281,372,-10,-68,2024-01-24 14:10:42,0.0
-3670,264,1372,291,-2,-50,2024-01-24 14:10:42,0.0
-3653,282,1121,170,87,-38,2024-01-24 14:10:42,0.0
-3664,393,1227,53,72,-11,2024-01-24 14:10:42,0.0
-3604,374,1219,-1,70,5,2024-01-24 14:10:42,0.0
-3644,296,1145,-66,35,2,2024-01-24 14:10:43,0.0
-3711,347,1022,-117,100,51,2024-01-24 14:10:43,0.0
-3662,480,1064,-130,-3,30,2024-01-24 14:10:43,0.0
-3704,428,1108,-108,-49,38,2024-01-24 14:10:43,
-3663,257,1125,-135,-47,57,2024-01-24 14:10:43,0.0
-3674,304,1227,-294,-24,83,2024-01-24 14:10:43,0.0
-3691,470,1273,-380,45,96,2024-01-24 14:10:43,0.0
-3661,467,1133,-281,-6,77,2024-01-24 14:10:43,0.0
-3656,491,1213,-260,-10,56,2024-01-24 14:10:43,0.0
-3655,482,1210,-192,-24,58,2024-01-24 14:10:43,0.0
-3620,389,1245,-151,-77,56,2024-01-24 14:10:43,0.0
-3698,385,1165,-104,-72,37,2024-01-24 14:10:43,0.0
-3636,286,1241,-102,-75,33,2024-01-24 14:10:43,0.0
-3630,310,1272,-100,-55,42,2024-01-24 14:10:43,0.0
-3645,341,1252,-113,-40,33,2024-01-24 14:10:43,0.0
-3678,322,1274,-111,-27,29,2024-01-24 14:10:43,0.0
-3693,304,1203,-97,185,21,2024-01-24 14:10:43,0.0
-3641,295,1304,-125,73,24,2024-01-24 14:10:43,0.0
-3658,336,1165,-143,4,41,2024-01-24 14:10:44,0.0
-3665,354,1223,-137,-13,30,2024-01-24 14:10:44,0.0
-3677,299,1167,-116,-67,28,2024-01-24 14:10:44,0.0
-3668,297,1237,-110,-106,26,2024-01-24 14:10:44,0.0
-3689,317,1206,-96,-84,28,2024-01-24 14:10:44,0.0
-3645,311,1270,-92,-162,26,2024-01-24 14:10:44,0.0
-3618,355,1310,-91,-146,29,2024-01-24 14:10:44,0.0
-3689,293,1303,-68,-136,21,2024-01-24 14:10:44,0.0
-3611,273,1322,-86,-150,24,2024-01-24 14:10:44,0.0
-3644,282,1338,-91,-97,26,2024-01-24 14:10:44,0.0
-3672,278,1370,-72,-75,25,2024-01-24 14:10:44,0.0
-3580,303,1375,-80,6,25,2024-01-24 14:10:44,0.0
-3660,293,1305,-102,-4,25,2024-01-24 14:10:44,0.0
-3670,285,1305,-148,-73,37,2024-01-24 14:10:44,0.0
-3612,245,1205,-165,-40,42,2024-01-24 14:10:44,0.0
-3701,302,1387,-180,-8,46,2024-01-24 14:10:44,0.0
-3581,278,1444,-183,155,41,2024-01-24 14:10:44,0.0
-3664,317,1331,-165,102,40,2024-01-24 14:10:45,0.0
-3659,257,1154,-154,16,57,2024-01-24 14:10:45,0.0
-3638,288,1282,-113,2,45,2024-01-24 14:10:45,0.0
-3674,317,1321,-90,84,19,2024-01-24 14:10:45,0.0
-3675,316,1280,-79,115,2,2024-01-24 14:10:45,0.0
-3686,252,1155,-74,-15,30,2024-01-24 14:10:45,0.0
-3685,276,1207,-77,-14,28,2024-01-24 14:10:45,0.0
-3649,287,1216,-82,-48,16,2024-01-24 14:10:45,0.0
-3653,289,1253,-60,-24,14,2024-01-24 14:10:45,0.0
-3687,232,1208,-45,-48,13,2024-01-24 14:10:45,0.0
-3687,270,1260,-36,-60,12,2024-01-24 14:10:45,0.0
-3671,265,1215,-22,-43,12,2024-01-24 14:10:45,0.0
-3669,246,1258,-19,-52,10,2024-01-24 14:10:45,0.0
-3649,281,1241,-19,-25,1,2024-01-24 14:10:45,0.0
-3666,258,1153,-25,-27,13,2024-01-24 14:10:45,0.0
-3670,251,1233,-25,-7,9,2024-01-24 14:10:45,0.0
-3647,267,1224,-12,-22,4,2024-01-24 14:10:45,0.0
-3668,233,1228,-11,-9,4,2024-01-24 14:10:45,0.0
-3636,255,1263,1,-68,6,2024-01-24 14:10:46,0.0
-3707,290,1155,-7,-12,29,2024-01-24 14:10:46,0.0
-3658,307,1328,66,-137,7,2024-01-24 14:10:46,0.0
-3615,314,1273,138,-119,-18,2024-01-24 14:10:46,0.0
-3614,320,1308,192,-65,-41,2024-01-24 14:10:46,0.0
-3652,351,1199,264,-83,-52,2024-01-24 14:10:46,0.0
-3703,389,1296,335,-94,-70,2024-01-24 14:10:46,0.0
-3608,330,1294,394,-27,-76,2024-01-24 14:10:46,0.0
-3622,278,1377,402,22,-82,2024-01-24 14:10:46,0.0
-3700,329,1241,374,-21,-81,2024-01-24 14:10:46,0.0
-3636,284,1212,313,30,-70,2024-01-24 14:10:46,0.0
-3691,330,1199,273,-7,-45,2024-01-24 14:10:46,0.0
-3657,295,1154,241,-8,-45,2024-01-24 14:10:46,0.0
-3713,276,1173,164,40,-30,2024-01-24 14:10:46,0.0
-3697,225,1098,85,54,-15,2024-01-24 14:10:46,0.0
-3705,342,1116,-4,21,16,2024-01-24 14:10:46,0.0
-3654,423,1266,-2,-17,27,2024-01-24 14:10:46,0.0
-3697,289,1219,-22,-57,19,2024-01-24 14:10:47,0.0
-3670,277,1112,-86,-12,21,2024-01-24 14:10:47,0.0
-3672,350,1091,-97,2,15,2024-01-24 14:10:47,0.0
-3709,362,1130,-96,-24,30,2024-01-24 14:10:47,0.0
-3675,355,1159,-89,-29,26,2024-01-24 14:10:47,0.0
-3696,327,1167,-97,-10,18,2024-01-24 14:10:47,0.0
-3706,373,1116,-91,-41,24,2024-01-24 14:10:47,0.0
-3674,389,1146,-80,-9,16,2024-01-24 14:10:47,0.0
-3688,332,1126,-72,-5,11,2024-01-24 14:10:47,0.0
-3681,394,1129,-57,-32,9,2024-01-24 14:10:47,0.0
-3686,351,1159,-35,17,8,2024-01-24 14:10:47,0.0
-3690,357,1119,-20,1,4,2024-01-24 14:10:47,0.0
-3718,357,1119,-12,-16,6,2024-01-24 14:10:47,0.0
-3700,308,1118,-34,-32,7,2024-01-24 14:10:47,0.0
-3721,364,1145,-53,-19,14,2024-01-24 14:10:47,0.0
-3694,313,1076,-66,-21,18,2024-01-24 14:10:47,0.0
-3690,300,1084,-91,-94,33,2024-01-24 14:10:47,0.0
-3735,333,1123,-96,-73,32,2024-01-24 14:10:47,0.0
-3675,349,1163,-81,25,17,2024-01-24 14:10:48,0.0
-3653,301,1126,-70,36,16,2024-01-24 14:10:48,0.0
-3694,338,1102,-65,58,12,2024-01-24 14:10:48,0.0
-3698,347,1089,-59,81,7,2024-01-24 14:10:48,0.0
-3719,303,1045,-70,14,21,2024-01-24 14:10:48,0.0
-3704,361,1023,-76,-33,25,2024-01-24 14:10:48,0.0
-3696,333,1069,-80,-66,29,2024-01-24 14:10:48,0.0
-3710,356,1047,-82,-63,23,2024-01-24 14:10:48,0.0
-3680,307,1078,-104,-92,39,2024-01-24 14:10:48,0.0
-3708,331,1117,-105,-54,35,2024-01-24 14:10:48,0.0
-3672,356,1093,-108,-60,41,2024-01-24 14:10:48,0.0
-3682,316,1103,-119,-60,43,2024-01-24 14:10:48,0.0
-3664,331,1148,-117,-54,39,2024-01-24 14:10:48,0.0
-3687,354,1082,-111,-32,37,2024-01-24 14:10:48,0.0
-3668,356,1142,-119,-103,38,2024-01-24 14:10:48,0.0
-3641,326,1172,-99,-76,24,2024-01-24 14:10:48,
-3678,355,1154,-99,-60,36,2024-01-24 14:10:48,0.0
-3663,383,1186,-88,-24,27,2024-01-24 14:10:49,0.0
-3699,377,1142,-74,-17,24,2024-01-24 14:10:49,0.0
-3658,352,1205,-53,-21,20,2024-01-24 14:10:49,0.0
-3654,347,1160,-46,-20,16,2024-01-24 14:10:49,0.0
-3657,369,1185,-32,-18,17,2024-01-24 14:10:49,0.0
-3671,335,1134,-35,-5,10,2024-01-24 14:10:49,0.0
-3678,346,1148,-29,-9,16,2024-01-24 14:10:49,0.0
-3664,357,1138,-31,-28,21,2024-01-24 14:10:49,0.0
-3645,343,1228,-28,-1,10,2024-01-24 14:10:49,0.0
-3697,348,1178,-36,-21,16,2024-01-24 14:10:49,0.0
-3693,348,1157,-33,-24,16,2024-01-24 14:10:49,0.0
-3670,379,1130,-35,-26,20,2024-01-24 14:10:49,0.0
-3673,365,1140,-33,-28,16,2024-01-24 14:10:49,0.0
-3671,350,1107,-39,-31,12,2024-01-24 14:10:49,0.0
-3687,347,1107,-41,-22,13,2024-01-24 14:10:49,0.0
-3683,365,1105,-37,-32,15,2024-01-24 14:10:49,0.0
-3694,358,1121,-31,-14,9,2024-01-24 14:10:49,0.0
-3678,376,1134,-43,-26,15,2024-01-24 14:10:49,0.0
-3690,365,1162,-33,-15,8,2024-01-24 14:10:50,0.0
-3685,358,1126,-38,-18,17,2024-01-24 14:10:50,0.0
-3687,330,1123,-39,-26,16,2024-01-24 14:10:50,0.0
-3681,386,1144,-47,-25,23,2024-01-24 14:10:50,0.0
-3690,361,1159,-38,-29,17,2024-01-24 14:10:50,0.0
-3674,361,1114,-47,-23,20,2024-01-24 14:10:50,0.0
-3667,377,1118,-39,-20,19,2024-01-24 14:10:50,0.0
-3687,341,1096,-34,-23,17,2024-01-24 14:10:50,0.0
-3668,360,1131,-28,7,12,2024-01-24 14:10:50,0.0
-3664,416,1183,-97,77,26,2024-01-24 14:10:50,0.0
-3730,271,995,-122,-42,32,2024-01-24 14:10:50,0.0
-3672,385,1222,-91,-35,45,2024-01-24 14:10:50,0.0
-3656,475,1148,-60,22,51,2024-01-24 14:10:50,0.0
-3639,387,1123,-40,41,31,2024-01-24 14:10:50,0.0
-3705,344,1083,-46,17,32,2024-01-24 14:10:50,0.0
-3683,423,1008,-15,-24,28,2024-01-24 14:10:50,0.0
-3719,406,994,24,-18,14,2024-01-24 14:10:50,0.0
-3663,429,1042,52,-57,-1,2024-01-24 14:10:51,0.0
-3664,413,1073,71,-56,-13,2024-01-24 14:10:51,0.0
-3707,380,1038,91,-55,-16,2024-01-24 14:10:51,0.0
-3724,400,1007,80,-49,-11,2024-01-24 14:10:51,0.0
-3688,391,1036,78,-63,1,2024-01-24 14:10:51,0.0
-3623,389,1147,58,-132,32,2024-01-24 14:10:51,0.0
-3733,398,997,-5,-273,50,2024-01-24 14:10:51,0.0
-3701,442,1234,-79,-129,38,2024-01-24 14:10:51,0.0
-3658,374,1143,-188,-141,76,2024-01-24 14:10:51,0.0
-3728,507,1202,-277,-55,72,2024-01-24 14:10:51,0.0
-3653,437,1224,-374,14,62,2024-01-24 14:10:51,0.0
-3685,543,1249,-434,124,71,2024-01-24 14:10:51,0.0
-3598,426,1351,-432,117,45,2024-01-24 14:10:51,0.0
-3625,409,1198,-399,114,25,2024-01-24 14:10:51,0.0
-3709,303,1228,-355,7,41,2024-01-24 14:10:51,0.0
-3686,319,1160,-338,-5,52,2024-01-24 14:10:51,0.0
-3678,239,1232,-327,48,52,2024-01-24 14:10:51,0.0
-3716,406,1137,-301,0,62,2024-01-24 14:10:52,0.0
-3645,274,1127,-236,23,25,2024-01-24 14:10:52,0.0
-3651,239,1193,-233,49,20,2024-01-24 14:10:52,0.0
-3717,211,1076,-230,-28,35,2024-01-24 14:10:52,0.0
-3707,225,1121,-202,-98,36,2024-01-24 14:10:52,0.0
-3595,293,1157,-188,-265,52,2024-01-24 14:10:52,0.0
-3611,307,1336,-108,122,5,2024-01-24 14:10:52,0.0
-3763,354,1229,-12,56,-23,2024-01-24 14:10:52,0.0
-3679,219,1194,19,197,-12,2024-01-24 14:10:52,0.0
-3712,196,1128,29,134,-31,2024-01-24 14:10:52,0.0
-3689,229,1036,-9,26,-8,2024-01-24 14:10:52,0.0
-3731,197,1033,0,-77,2,2024-01-24 14:10:52,0.0
-3725,266,1126,-18,-82,11,2024-01-24 14:10:52,0.0
-3696,291,1102,-8,-108,13,2024-01-24 14:10:52,0.0
-3690,296,1111,13,-112,12,2024-01-24 14:10:52,0.0
-3718,278,1150,16,-116,23,2024-01-24 14:10:52,0.0
-3690,268,1184,15,-120,17,2024-01-24 14:10:52,0.0
-3668,244,1210,-5,-91,9,2024-01-24 14:10:52,0.0
-3701,243,1199,-14,-120,12,2024-01-24 14:10:53,0.0
-3645,283,1210,-15,-37,3,2024-01-24 14:10:53,0.0
-3684,265,1192,-5,-58,7,2024-01-24 14:10:53,0.0
-3657,250,1239,4,37,5,2024-01-24 14:10:53,0.0
-3647,314,1201,22,59,0,2024-01-24 14:10:53,0.0
-3697,293,1155,-5,-25,10,2024-01-24 14:10:53,0.0
-3674,260,1131,-31,-51,14,2024-01-24 14:10:53,0.0
-3688,276,1164,-61,-53,12,2024-01-24 14:10:53,0.0
-3674,282,1183,-64,-40,16,2024-01-24 14:10:53,0.0
-3657,300,1221,-58,-32,5,2024-01-24 14:10:53,0.0
-3689,300,1182,-48,-21,6,2024-01-24 14:10:53,0.0
-3673,294,1174,-31,-20,7,2024-01-24 14:10:53,0.0
-3657,290,1143,-23,-12,11,2024-01-24 14:10:53,0.0
-3668,276,1228,-17,-30,2,2024-01-24 14:10:53,0.0
-3694,227,1184,-29,-23,7,2024-01-24 14:10:53,0.0
-3673,242,1190,-42,-31,14,2024-01-24 14:10:53,0.0
-3694,273,1154,-49,-6,8,2024-01-24 14:10:53,0.0
-3682,288,1182,-40,-4,7,2024-01-24 14:10:54,0.0
-3686,232,1172,-31,-28,8,2024-01-24 14:10:54,0.0
-3696,250,1191,-30,-34,9,2024-01-24 14:10:54,0.0
-3643,287,1166,-50,-208,10,2024-01-24 14:10:54,0.0
-3622,221,1149,-48,-83,11,2024-01-24 14:10:54,0.0
-3739,280,1218,-22,-152,-1,2024-01-24 14:10:54,0.0
-3688,250,1244,-45,-86,17,2024-01-24 14:10:54,0.0
-3721,220,1406,-46,129,12,2024-01-24 14:10:54,0.0
-3598,215,1322,-38,218,9,2024-01-24 14:10:54,0.0
-3586,257,1192,-58,252,-4,2024-01-24 14:10:54,0.0
-3739,220,1051,-71,91,13,2024-01-24 14:10:54,0.0
-3629,205,1058,-74,96,6,2024-01-24 14:10:54,
