acceleration_x,acceleration_y,acceleration_z,gyroscope_x,gyroscope_y,gyroscope_z,timestamp,label
-3293,-313,723,246,-236,-259,2024-01-24 14:11:43,0.0
-3301,-357,1351,-88,-86,-60,2024-01-24 14:11:43,0.0
-4192,-22,1275,-361,106,65,2024-01-24 14:11:47,0.0
-4975,516,1244,-141,249,145,2024-01-24 14:11:47,0.0
-4654,497,3363,-159,-238,78,2024-01-24 14:11:47,0.0
-2291,480,2260,214,-173,-242,2024-01-24 14:11:47,0.0
-3124,648,2062,532,-402,-456,2024-01-24 14:11:47,0.0
-3890,-875,2953,316,-188,-183,2024-01-24 14:11:47,0.0
-2783,-245,1617,-46,469,244,2024-01-24 14:11:47,0.0
-3078,339,1218,-148,149,417,2024-01-24 14:11:47,0.0
-2971,591,1015,-259,-189,468,2024-01-24 14:11:47,0.0
-2978,543,1574,1318,-116,-493,2024-01-24 14:11:47,0.0
-3877,521,2377,1456,-14,-709,2024-01-24 14:11:47,0.0
-3604,689,1885,1480,-295,-869,2024-01-24 14:11:47,0.0
-3022,892,1686,1872,-350,-1149,2024-01-24 14:11:47,0.0
-3224,-563,1746,1732,-470,-1186,2024-01-24 14:11:48,0.0
-3060,-364,1436,1273,-241,-911,2024-01-24 14:11:48,0.0
-3235,-194,1403,1140,131,-728,2024-01-24 14:11:48,0.0
-3345,304,1061,1107,-147,-403,2024-01-24 14:11:48,0.0
-4283,-75,1860,680,294,-498,2024-01-24 14:11:48,0.0
-4226,841,1105,1026,244,-197,2024-01-24 14:11:48,0.0
-3557,847,3473,1505,-534,-646,2024-01-24 14:11:48,0.0
-2623,-177,2989,1163,-477,-453,2024-01-24 14:11:48,0.0
-3162,1558,2396,1858,-447,-696,2024-01-24 14:11:49,0.0
-3156,738,2457,542,-439,-413,2024-01-24 14:11:49,0.0
-3625,-344,2353,838,-289,-266,2024-01-24 14:11:49,0.0
-2546,-353,1568,686,-85,-75,2024-01-24 14:11:49,0.0
-2935,202,1363,308,242,6,2024-01-24 14:11:49,0.0
-3016,742,898,81,20,108,2024-01-24 14:11:49,0.0
-3021,-56,966,-68,247,58,2024-01-24 14:11:49,0.0
-3616,458,1471,-113,213,16,2024-01-24 14:11:49,0.0
-5094,965,899,294,613,116,2024-01-24 14:11:49,0.0
-5052,-436,2470,211,284,260,2024-01-24 14:11:49,0.0
-2896,963,3043,-27,-283,351,2024-01-24 14:11:49,0.0
-3382,-831,2205,-879,-308,470,2024-01-24 14:11:49,0.0
-3947,1171,2389,-787,-272,417,2024-01-24 14:11:49,0.0
-2533,1082,1838,37,-424,-238,2024-01-24 14:11:49,0.0
-2645,241,1301,378,-151,-424,2024-01-24 14:11:49,0.0
-3390,-306,1407,368,-262,-521,2024-01-24 14:11:49,0.0
-2928,-81,1280,499,116,-381,2024-01-24 14:11:49,0.0
-3434,-475,933,525,655,-229,2024-01-24 14:11:49,0.0
-4128,-406,1197,-216,543,-135,2024-01-24 14:11:50,0.0
-4690,1167,991,-37,301,-106,2024-01-24 14:11:50,0.0
-4571,-142,2206,25,-557,-435,2024-01-24 14:11:50,0.0
-2540,49,2191,51,-259,-314,2024-01-24 14:11:50,0.0
-3851,1000,2828,682,-282,-564,2024-01-24 14:11:50,0.0
-3568,-507,2164,779,124,-137,2024-01-24 14:11:50,0.0
-2972,68,1137,552,81,54,2024-01-24 14:11:50,0.0
-3264,421,1612,529,49,113,2024-01-24 14:11:50,0.0
-3229,304,1312,475,-23,155,2024-01-24 14:11:50,0.0
-3303,510,1194,332,324,-76,2024-01-24 14:11:50,0.0
-3278,743,787,398,339,-176,2024-01-24 14:11:50,0.0
-3557,497,831,502,246,-399,2024-01-24 14:11:50,0.0
-4459,248,1068,696,325,-269,2024-01-24 14:11:50,0.0
-5180,702,2483,723,84,70,2024-01-24 14:11:50,0.0
-2694,924,2150,826,-594,-81,2024-01-24 14:11:50,0.0
-3676,-409,2133,508,-411,-162,2024-01-24 14:11:50,0.0
-3078,1227,1926,1301,-66,-349,2024-01-24 14:11:50,0.0
-3228,583,1699,1654,-299,-733,2024-01-24 14:11:50,0.0
-3371,453,1834,2011,-523,-948,2024-01-24 14:11:51,0.0
-3337,354,1808,2130,-362,-970,2024-01-24 14:11:51,0.0
-3315,-356,1532,1974,-318,-1010,2024-01-24 14:11:51,0.0
-3089,379,1761,2164,-165,-810,2024-01-24 14:11:51,0.0
-3496,0,1896,2130,-13,-737,2024-01-24 14:11:52,0.0
-3455,395,1491,2340,-53,-581,2024-01-24 14:11:52,0.0
-3923,1358,2846,2496,-448,-902,2024-01-24 14:11:52,0.0
-2878,78,1840,2181,-419,-822,2024-01-24 14:11:52,0.0
-3587,1494,2039,2581,-654,-800,2024-01-24 14:11:52,0.0
-3661,465,2619,2337,-600,-750,2024-01-24 14:11:52,0.0
-3220,313,1539,1987,-496,-682,2024-01-24 14:11:52,0.0
-3626,1123,1816,1590,-367,-511,2024-01-24 14:11:52,0.0
-3168,953,1466,1379,-350,-449,2024-01-24 14:11:52,0.0
-2584,-411,1446,390,2,29,2024-01-24 14:11:54,0.0
-2931,138,1303,-90,-36,146,2024-01-24 14:11:54,0.0
-3046,589,1202,-30,19,218,2024-01-24 14:11:54,0.0
-2857,597,1004,-214,-20,71,2024-01-24 14:11:54,0.0
-3449,-31,1327,-495,407,111,2024-01-24 14:11:54,0.0
-4131,661,1203,-7,449,47,2024-01-24 14:11:54,0.0
-4926,369,686,-70,587,114,2024-01-24 14:11:54,0.0
-5159,336,3001,-60,74,399,2024-01-24 14:11:54,0.0
-2546,393,2928,-143,-288,249,2024-01-24 14:11:57,0.0
-3786,499,2652,1950,-657,-642,2024-01-24 14:11:57,0.0
-3081,-3,1910,1715,-407,-641,2024-01-24 14:11:57,0.0
-2941,326,1307,1357,-224,-420,2024-01-24 14:11:57,0.0
-3271,894,1415,1027,-477,-387,2024-01-24 14:11:57,0.0
-3293,402,1511,670,-24,-337,2024-01-24 14:11:57,0.0
-3798,1047,1269,561,354,-261,2024-01-24 14:11:57,0.0
-3142,1103,1026,602,112,-363,2024-01-24 14:11:57,0.0
-4560,1577,1504,648,605,-316,2024-01-24 14:11:58,0.0
-3673,1467,2558,1131,67,-341,2024-01-24 14:11:58,0.0
-3403,255,1821,1109,-143,-449,2024-01-24 14:11:58,0.0
-2988,437,2408,1276,-804,-431,2024-01-24 14:11:58,0.0
-3822,697,2199,1426,-368,-641,2024-01-24 14:11:58,0.0
-3314,877,2140,1626,-305,-956,2024-01-24 14:11:58,0.0
-3193,613,2058,1775,-425,-1204,2024-01-24 14:11:58,0.0
-2984,-596,1725,1504,-256,-1207,2024-01-24 14:11:58,0.0
-2857,-392,1171,1180,159,-828,2024-01-24 14:11:58,0.0
-3572,335,1605,960,-23,-561,2024-01-24 14:11:58,0.0
-3462,45,1360,962,125,-366,2024-01-24 14:11:58,0.0
-4149,419,1587,1123,330,-184,2024-01-24 14:11:58,
-3797,734,2620,1128,-84,-552,2024-01-24 14:11:58,0.0
-2706,144,1897,1241,3,-458,2024-01-24 14:11:58,0.0
-3536,946,1960,1566,-476,-594,2024-01-24 14:11:58,0.0
-3484,-230,2237,1351,-350,-457,2024-01-24 14:11:58,0.0
-3639,225,1821,1046,38,-203,2024-01-24 14:11:58,0.0
-3065,634,1187,826,-83,-237,2024-01-24 14:11:59,0.0
-3211,403,1134,688,51,-63,2024-01-24 14:11:59,0.0
-3340,654,1452,400,200,-117,2024-01-24 14:11:59,0.0
-3755,693,1063,356,498,-140,2024-01-24 14:11:59,0.0
-3857,422,746,438,161,-80,2024-01-24 14:11:59,0.0
-4875,554,955,336,377,55,2024-01-24 14:11:59,0.0
-4162,1225,2474,751,-211,97,2024-01-24 14:11:59,0.0
-2691,364,1961,645,-188,41,2024-01-24 14:11:59,0.0
-3199,-473,2200,-37,-202,181,2024-01-24 14:11:59,0.0
-3987,1039,2324,21,-147,156,2024-01-24 14:11:59,0.0
-3104,421,1269,1,-437,-227,2024-01-24 14:11:59,0.0
-3245,467,1512,-63,-371,-171,2024-01-24 14:11:59,0.0
-2984,113,1349,-39,-476,-322,2024-01-24 14:11:59,0.0
-2796,-349,884,71,30,-101,2024-01-24 14:12:00,0.0
-3316,-176,998,6,522,-16,2024-01-24 14:12:00,0.0
-3910,2,1231,-177,284,134,2024-01-24 14:12:00,0.0
-3114,769,1219,-943,199,190,2024-01-24 14:12:00,0.0
-3014,-73,1141,-545,305,-29,2024-01-24 14:12:00,0.0
-3296,-292,729,-372,499,80,2024-01-24 14:12:01,0.0
-4246,51,1078,-548,401,86,2024-01-24 14:12:01,0.0
-4575,-168,922,-810,221,193,2024-01-24 14:12:01,0.0
-4465,-95,2372,-722,45,240,2024-01-24 14:12:01,0.0
-2475,154,2520,-864,-153,3,2024-01-24 14:12:01,0.0
-3526,-104,2527,-1439,-514,184,2024-01-24 14:12:01,0.0
-3459,431,2123,-1074,6,375,2024-01-24 14:12:01,0.0
-3720,-205,1827,-1246,-54,551,2024-01-24 14:12:01,0.0
-3479,-608,2123,-1658,162,902,2024-01-24 14:12:01,0.0
-3138,527,1859,-1757,44,1173,2024-01-24 14:12:01,0.0
-3156,322,1696,-1718,120,979,2024-01-24 14:12:01,0.0
-3249,76,1454,-1803,366,933,2024-01-24 14:12:01,0.0
-3309,-235,1333,-2023,385,862,2024-01-24 14:12:01,0.0
-3367,154,1736,-2268,504,711,2024-01-24 14:12:01,0.0
-3912,640,1625,-1892,184,688,2024-01-24 14:12:01,0.0
-3931,-873,3071,-2187,292,776,2024-01-24 14:12:01,0.0
-3035,253,2431,-2231,-179,810,2024-01-24 14:12:01,0.0
-3456,-836,2341,-2599,-45,900,2024-01-24 14:12:01,0.0
-3638,176,2620,-2455,-21,905,2024-01-24 14:12:02,0.0
-2964,178,1600,-2367,-228,909,2024-01-24 14:12:02,0.0
-3114,-300,1367,-1930,-51,831,2024-01-24 14:12:02,0.0
-3300,-217,1565,-1689,-86,740,2024-01-24 14:12:02,0.0
-3532,-352,1813,-1216,73,566,2024-01-24 14:12:02,0.0
-3433,-42,1483,-957,719,492,2024-01-24 14:12:02,0.0
-3848,-402,817,-1013,466,431,2024-01-24 14:12:02,0.0
-4364,-196,1159,-771,477,362,2024-01-24 14:12:02,0.0
-4453,-619,2196,-657,148,268,2024-01-24 14:12:02,0.0
-3088,-109,2611,-812,72,222,2024-01-24 14:12:02,0.0
-2794,371,1622,-669,-144,163,2024-01-24 14:12:02,0.0
-3596,481,2377,-371,-434,301,2024-01-24 14:12:02,0.0
-3663,-541,1974,-304,-244,423,2024-01-24 14:12:02,0.0
-3337,299,1696,-190,270,431,2024-01-24 14:12:02,0.0
-3381,442,884,-133,210,510,2024-01-24 14:12:02,0.0
-2789,132,615,-234,53,417,2024-01-24 14:12:02,0.0
-3424,529,894,-224,95,201,2024-01-24 14:12:02,0.0
-3309,548,1440,-156,-81,25,2024-01-24 14:12:02,0.0
-4941,469,1248,-144,479,-70,2024-01-24 14:12:03,0.0
-5196,4,2653,-76,-173,21,2024-01-24 14:12:03,0.0
-3173,1175,2084,-142,-110,190,2024-01-24 14:12:03,0.0
-2870,-1073,2223,-973,-114,322,2024-01-24 14:12:03,0.0
-3826,922,2217,-903,-17,433,2024-01-24 14:12:03,0.0
-2831,478,1316,-647,-339,-53,2024-01-24 14:12:03,0.0
-2950,2,1300,-483,-137,109,2024-01-24 14:12:03,0.0
-3291,497,1106,-341,-108,-167,2024-01-24 14:12:03,0.0
-2962,79,1154,-9,114,-314,2024-01-24 14:12:03,0.0
-3430,-116,788,289,532,-162,2024-01-24 14:12:03,0.0
-4273,-404,1191,-88,341,-118,2024-01-24 14:12:03,0.0
-4734,-26,625,-416,208,-300,2024-01-24 14:12:03,0.0
-4277,959,3352,213,-459,-423,2024-01-24 14:12:03,0.0
-2955,32,2624,227,-236,-697,2024-01-24 14:12:03,0.0
-3040,870,2284,1040,-455,-485,2024-01-24 14:12:03,0.0
-3491,-601,2322,1097,-64,-329,2024-01-24 14:12:03,0.0
-2789,-447,1352,641,-98,-122,2024-01-24 14:12:03,0.0
-3038,335,1457,447,-19,181,2024-01-24 14:12:03,0.0
-2966,794,1254,575,-6,101,2024-01-24 14:12:04,0.0
-3464,-14,1187,262,423,-81,2024-01-24 14:12:04,0.0
-3318,557,794,21,275,-45,2024-01-24 14:12:04,0.0
-4746,654,882,266,391,-143,2024-01-24 14:12:04,0.0
-4832,-203,1598,365,387,183,2024-01-24 14:12:04,0.0
-3762,1612,2768,589,-485,206,2024-01-24 14:12:04,0.0
-3284,-516,1840,-79,43,97,2024-01-24 14:12:04,0.0
-3866,527,2104,-275,-118,279,2024-01-24 14:12:04,0.0
-3253,1084,1734,279,-245,-254,2024-01-24 14:12:04,0.0
-3019,178,1325,509,-248,-318,2024-01-24 14:12:04,0.0
-3096,194,1224,609,-376,-495,2024-01-24 14:12:04,0.0
-2594,4,944,811,-267,-444,2024-01-24 14:12:04,0.0
-3324,-243,1035,990,397,-194,2024-01-24 14:12:04,0.0
-3731,254,920,488,111,-229,2024-01-24 14:12:04,0.0
-4966,-73,1406,281,155,-414,2024-01-24 14:12:04,0.0
-4659,1158,2840,837,410,-474,2024-01-24 14:12:04,0.0
-2926,18,1682,408,-249,-516,2024-01-24 14:12:04,0.0
-3389,1489,2507,952,-540,-425,2024-01-24 14:12:05,0.0
-3557,-115,1935,1126,-493,-363,2024-01-24 14:12:05,0.0
-2947,104,1570,985,-231,-274,2024-01-24 14:12:05,0.0
-3451,293,1685,761,-229,-144,2024-01-24 14:12:05,0.0
-3177,570,1360,817,-31,-112,2024-01-24 14:12:05,0.0
-3152,284,1142,648,226,-176,2024-01-24 14:12:05,
-3295,954,1139,640,391,-340,2024-01-24 14:12:05,0.0
-3743,534,1158,635,362,-500,2024-01-24 14:12:05,0.0
-4113,470,1002,766,342,-577,2024-01-24 14:12:05,0.0
-4581,1533,3277,1045,82,-408,2024-01-24 14:12:05,0.0
-3354,-18,2647,1488,-529,-506,2024-01-24 14:12:05,0.0
-3013,299,1477,1040,-118,-540,2024-01-24 14:12:05,0.0
-3525,855,2152,1665,-85,-594,2024-01-24 14:12:05,0.0
-3257,456,1854,2237,-239,-896,2024-01-24 14:12:05,0.0
-3351,104,2031,2252,-318,-1092,2024-01-24 14:12:05,0.0
-3409,522,1782,2380,-290,-1144,2024-01-24 14:12:05,0.0
-2874,86,1862,2325,-329,-1147,2024-01-24 14:12:05,0.0
-3348,-226,2270,2020,-114,-885,2024-01-24 14:12:06,0.0
-3300,277,1853,2125,244,-666,2024-01-24 14:12:06,0.0
-3062,664,1371,2582,40,-642,2024-01-24 14:12:06,0.0
-3885,1077,2895,2676,27,-828,2024-01-24 14:12:06,0.0
-3128,-638,1765,1747,-246,-630,2024-01-24 14:12:06,0.0
-3811,1784,1831,2209,-503,-616,2024-01-24 14:12:06,0.0
-3571,269,2260,1809,-494,-660,2024-01-24 14:12:06,0.0
-3132,916,1454,1506,-208,-589,2024-01-24 14:12:06,0.0
-3446,1150,1575,1378,-343,-551,2024-01-24 14:12:06,0.0
-2914,800,1337,1078,-147,-398,2024-01-24 14:12:06,0.0
-3425,1021,1323,886,16,-318,2024-01-24 14:12:06,0.0
-4001,977,1192,732,382,-290,2024-01-24 14:12:06,0.0
-4186,1225,774,355,239,-206,2024-01-24 14:12:06,0.0
-3858,1281,2511,514,-62,-177,2024-01-24 14:12:06,0.0
-3036,447,3078,977,-338,-286,2024-01-24 14:12:06,0.0
-3564,-492,2174,362,-213,-232,2024-01-24 14:12:06,0.0
-3577,1057,2297,431,-48,-296,2024-01-24 14:12:06,0.0
-2744,-107,1301,385,-453,-368,2024-01-24 14:12:06,0.0
-3262,462,1637,280,-181,-289,2024-01-24 14:12:07,0.0
-3449,377,1371,82,-134,-419,2024-01-24 14:12:07,0.0
-3020,70,1241,180,-103,-275,2024-01-24 14:12:07,0.0
-3322,-154,1042,125,455,-288,2024-01-24 14:12:07,0.0
-3650,118,1269,-20,199,-74,2024-01-24 14:12:07,0.0
-4853,207,971,-108,332,-45,2024-01-24 14:12:07,0.0
-4770,448,3606,-159,-332,-23,2024-01-24 14:12:07,0.0
-2560,15,2113,-3,42,-111,2024-01-24 14:12:07,0.0
-3344,1046,2231,279,-130,-239,2024-01-24 14:12:07,0.0
-3434,131,2252,673,-181,-123,2024-01-24 14:12:07,0.0
-2860,-82,1550,465,-165,-30,2024-01-24 14:12:07,0.0
-3241,265,1448,117,-104,138,2024-01-24 14:12:07,0.0
-2859,663,962,100,-39,54,2024-01-24 14:12:07,0.0
-3112,214,1389,-64,271,-16,2024-01-24 14:12:07,0.0
-3376,666,961,-14,450,9,2024-01-24 14:12:07,0.0
-4382,797,1099,230,515,-184,2024-01-24 14:12:07,0.0
-5351,-111,1658,-70,443,73,2024-01-24 14:12:07,0.0
-3974,1074,2936,558,-224,141,2024-01-24 14:12:08,0.0
-3271,-815,1828,-445,-451,101,2024-01-24 14:12:08,0.0
-3538,229,2404,-723,-30,322,2024-01-24 14:12:08,0.0
-3091,1094,1721,-263,-184,-36,2024-01-24 14:12:08,0.0
-2942,-41,1349,55,-205,-138,2024-01-24 14:12:08,0.0
-3125,179,1254,-22,-228,-136,2024-01-24 14:12:08,0.0
-2901,295,1292,245,54,-296,2024-01-24 14:12:08,0.0
-3143,-77,993,625,442,-322,2024-01-24 14:12:08,0.0
-3805,-497,888,105,246,-168,2024-01-24 14:12:08,0.0
-4575,54,862,-230,233,-198,2024-01-24 14:12:08,0.0
-4665,529,798,168,209,104,2024-01-24 14:12:08,0.0
-4070,451,2947,-72,-186,-292,2024-01-24 14:12:08,0.0
-2788,19,2157,57,-471,-304,2024-01-24 14:12:10,0.0
-3668,571,2181,524,-274,-355,2024-01-24 14:12:10,0.0
-3651,-509,2112,346,97,-29,2024-01-24 14:12:10,0.0
-2856,-140,1437,-69,-141,267,2024-01-24 14:12:10,0.0
-3040,559,1370,41,-36,272,2024-01-24 14:12:10,0.0
-3033,776,1178,262,-149,147,2024-01-24 14:12:10,0.0
-3383,-124,1138,32,86,-22,2024-01-24 14:12:10,0.0
-3335,512,822,-24,294,-57,2024-01-24 14:12:10,0.0
-3751,488,1271,-2,290,-270,2024-01-24 14:12:10,0.0
-3713,909,1625,1084,98,-482,2024-01-24 14:12:10,0.0
-4102,1428,1203,887,263,-460,2024-01-24 14:12:10,0.0
-3722,1304,903,781,284,-498,2024-01-24 14:12:10,0.0
-3361,1639,1714,792,-53,-476,2024-01-24 14:12:10,0.0
-3481,428,3988,1881,-479,-549,2024-01-24 14:12:10,0.0
-3540,10,1615,1464,-228,-837,2024-01-24 14:12:10,0.0
-3089,456,2112,1212,-192,-680,2024-01-24 14:12:10,0.0
-3523,176,1965,1281,-573,-774,2024-01-24 14:12:10,0.0
-2897,145,1636,1141,-256,-822,2024-01-24 14:12:10,0.0
-3159,-52,1837,935,-338,-683,2024-01-24 14:12:10,0.0
-3083,47,1279,794,-271,-568,2024-01-24 14:12:10,0.0
-3390,109,1213,666,117,-353,2024-01-24 14:12:10,0.0
-3636,144,1520,664,122,-210,2024-01-24 14:12:10,0.0
-4484,164,1368,671,311,-88,2024-01-24 14:12:11,0.0
-4392,635,2995,588,-37,-192,2024-01-24 14:12:11,0.0
-2945,76,2070,259,-248,-170,2024-01-24 14:12:11,0.0
-3118,922,2537,522,-560,-381,2024-01-24 14:12:11,0.0
-3393,36,2462,486,-455,-99,2024-01-24 14:12:11,0.0
-3099,153,1672,444,-123,-32,2024-01-24 14:12:11,0.0
-2951,473,1413,369,-21,41,2024-01-24 14:12:11,0.0
-3047,648,1259,413,-66,-41,2024-01-24 14:12:11,0.0
-2910,746,1102,375,289,-121,2024-01-24 14:12:11,0.0
-3299,602,1582,391,235,-249,2024-01-24 14:12:11,0.0
-4591,333,1758,441,445,-243,2024-01-24 14:12:11,0.0
-5172,237,2332,62,537,27,2024-01-24 14:12:11,0.0
-3461,613,2746,-39,-187,222,2024-01-24 14:12:11,0.0
-3043,-595,2150,-937,-54,461,2024-01-24 14:12:11,0.0
-3997,1653,2548,-501,32,388,2024-01-24 14:12:11,0.0
-2669,611,1596,14,-195,-276,2024-01-24 14:12:11,0.0
-2750,41,1302,133,-102,-218,2024-01-24 14:12:11,0.0
-2677,-11,795,55,-124,-294,2024-01-24 14:12:12,0.0
-3203,-337,1196,304,556,-178,2024-01-24 14:12:12,0.0
-3422,-307,986,-9,300,95,2024-01-24 14:12:12,
-5147,348,1460,-519,370,-125,2024-01-24 14:12:12,0.0
-4976,520,1908,-67,213,4,2024-01-24 14:12:12,0.0
-3281,888,2717,26,-310,-472,2024-01-24 14:12:12,0.0
-2838,1539,2285,1011,-544,-844,2024-01-24 14:12:12,0.0
-4036,-431,2516,1329,-473,-541,2024-01-24 14:12:12,0.0
-3163,-663,1646,962,-65,-333,2024-01-24 14:12:12,0.0
-2892,-180,1154,545,-155,143,2024-01-24 14:12:12,0.0
-3003,885,1089,348,-199,167,2024-01-24 14:12:12,0.0
-2758,262,1582,64,-8,1,2024-01-24 14:12:12,0.0
-3621,516,1247,-231,495,-165,2024-01-24 14:12:12,0.0
-4280,131,1262,124,315,-123,2024-01-24 14:12:12,0.0
-4541,-9,803,115,490,122,2024-01-24 14:12:12,0.0
-4111,1219,3016,-195,-2,304,2024-01-24 14:12:12,0.0
-2720,300,2450,-9,-270,327,2024-01-24 14:12:13,0.0
-3700,672,2210,-115,-18,215,2024-01-24 14:12:13,0.0
-3523,1072,2320,610,-25,-307,2024-01-24 14:12:13,0.0
-2860,663,1700,1330,-406,-668,2024-01-24 14:12:13,0.0
-3297,-167,1930,1599,-137,-934,2024-01-24 14:12:13,0.0
-2883,570,1678,1765,-76,-796,2024-01-24 14:12:13,0.0
-3141,412,1773,1959,-9,-810,2024-01-24 14:12:13,0.0
-3516,117,1628,1884,-330,-707,2024-01-24 14:12:13,0.0
-3383,-158,1661,1824,-32,-591,2024-01-24 14:12:13,0.0
-4116,972,2343,1792,-110,-487,2024-01-24 14:12:13,0.0
-3162,247,2128,1503,-682,-790,2024-01-24 14:12:13,0.0
-3108,1071,1551,1732,-229,-519,2024-01-24 14:12:13,0.0
-4487,895,2531,1802,-685,-622,2024-01-24 14:12:13,0.0
-2807,924,1342,2005,-403,-616,2024-01-24 14:12:13,0.0
-3164,896,1676,1847,-514,-655,2024-01-24 14:12:13,0.0
-3426,816,1459,1540,-463,-586,2024-01-24 14:12:13,0.0
-3381,1313,1596,1409,-357,-649,2024-01-24 14:12:13,0.0
-3432,1137,1542,1403,-122,-654,2024-01-24 14:12:13,0.0
-3484,1126,1271,1242,71,-605,2024-01-24 14:12:14,0.0
-3830,1339,1152,1098,234,-554,2024-01-24 14:12:14,0.0
-3859,1748,2565,1187,34,-451,2024-01-24 14:12:14,0.0
-2811,319,2314,1273,-473,-568,2024-01-24 14:12:14,0.0
-3328,-52,2338,927,-203,-593,2024-01-24 14:12:14,0.0
-3778,973,2058,1139,-312,-821,2024-01-24 14:12:14,0.0
-3121,-545,1419,849,-473,-684,2024-01-24 14:12:14,0.0
-3424,17,1523,298,-148,-414,2024-01-24 14:12:14,0.0
-3376,295,1138,96,-226,-358,2024-01-24 14:12:14,0.0
-3290,9,1132,147,91,-293,2024-01-24 14:12:14,0.0
-2853,-158,999,-23,-82,-213,2024-01-24 14:12:14,0.0
-3788,265,1775,-20,360,-208,2024-01-24 14:12:14,0.0
-4971,803,1090,171,-50,-154,2024-01-24 14:12:14,0.0
-4632,456,3219,652,-23,-110,2024-01-24 14:12:14,0.0
-2440,-142,2798,642,-364,-498,2024-01-24 14:12:14,0.0
-3536,539,2535,724,-126,-415,2024-01-24 14:12:14,0.0
-3172,27,2127,946,-23,-327,2024-01-24 14:12:14,0.0
-2825,-215,1441,604,-45,-151,2024-01-24 14:12:14,0.0
-3190,195,1432,240,60,186,2024-01-24 14:12:14,0.0
-2979,537,1138,124,-21,164,2024-01-24 14:12:15,0.0
-3056,-18,1293,20,190,178,2024-01-24 14:12:17,0.0
-3397,504,1342,-309,355,140,2024-01-24 14:12:17,0.0
-4200,952,1329,5,342,-21,2024-01-24 14:12:17,0.0
-5034,-520,1778,-338,466,152,2024-01-24 14:12:17,0.0
-4245,991,3003,-79,-121,365,2024-01-24 14:12:17,0.0
-2994,-544,2193,-744,-366,447,2024-01-24 14:12:17,0.0
-3093,198,2319,-1057,-82,568,2024-01-24 14:12:17,0.0
-3001,47,1438,-152,-177,-28,2024-01-24 14:12:17,0.0
-3037,241,1520,-175,-120,-90,2024-01-24 14:12:18,0.0
-4451,292,1525,188,451,-69,2024-01-24 14:12:18,0.0
-4932,1226,2464,604,585,-230,2024-01-24 14:12:18,0.0
-2577,357,2495,374,-224,-549,2024-01-24 14:12:18,0.0
-3280,1087,2586,745,-513,-571,2024-01-24 14:12:18,0.0
-3410,242,2180,1086,-620,-370,2024-01-24 14:12:18,0.0
-3017,-434,1665,815,-213,-225,2024-01-24 14:12:18,0.0
-3113,77,1539,280,-30,81,2024-01-24 14:12:18,0.0
-2894,727,980,228,1,204,2024-01-24 14:12:18,0.0
-3141,512,1300,109,102,140,2024-01-24 14:12:18,0.0
-3490,835,1455,-133,322,-2,2024-01-24 14:12:18,0.0
-4566,656,1217,281,514,-102,2024-01-24 14:12:18,0.0
-4798,334,2087,121,315,77,2024-01-24 14:12:18,0.0
-3561,571,2868,117,-72,323,2024-01-24 14:12:19,0.0
-2986,-681,2050,-748,180,454,2024-01-24 14:12:19,0.0
-3897,1096,2373,-859,-84,649,2024-01-24 14:12:19,0.0
-2950,1206,1796,-401,18,93,2024-01-24 14:12:19,0.0
-2554,438,989,-29,-40,-157,2024-01-24 14:12:19,0.0
-3334,483,1121,92,-170,-327,2024-01-24 14:12:19,0.0
-2922,32,1406,371,-46,-443,2024-01-24 14:12:19,0.0
-3202,132,827,536,532,-323,2024-01-24 14:12:19,0.0
-4548,191,1551,112,-3,-211,2024-01-24 14:12:19,0.0
-4805,633,1515,94,368,-265,2024-01-24 14:12:19,0.0
-3921,276,2312,89,-196,-538,2024-01-24 14:12:19,0.0
-2732,1350,2135,838,-524,-427,2024-01-24 14:12:19,0.0
-3623,-115,2599,962,-613,-478,2024-01-24 14:12:19,0.0
-3058,275,1921,862,-48,-338,2024-01-24 14:12:19,0.0
-2932,447,1483,842,-272,-283,2024-01-24 14:12:19,0.0
-3093,361,1523,730,-167,-277,2024-01-24 14:12:19,0.0
-3340,566,1659,605,61,-126,2024-01-24 14:12:19,0.0
-3634,502,1524,482,336,-215,2024-01-24 14:12:19,0.0
-3605,1014,1129,602,294,-287,2024-01-24 14:12:19,0.0
-3785,352,1038,518,338,-275,2024-01-24 14:12:19,0.0
-4347,713,3548,645,332,110,2024-01-24 14:12:20,0.0
-2888,250,2120,854,-306,-79,2024-01-24 14:12:20,0.0
-3574,-116,1957,330,-64,-128,2024-01-24 14:12:20,0.0
-3612,1326,2103,956,-85,-273,2024-01-24 14:12:20,0.0
-3137,681,1530,1474,-289,-614,2024-01-24 14:12:20,0.0
-3369,97,1723,1407,-205,-853,2024-01-24 14:12:20,0.0
-2877,661,1456,1667,-412,-763,2024-01-24 14:12:20,0.0
-3241,467,1995,2039,-216,-879,2024-01-24 14:12:20,
-2875,-19,2143,1858,-535,-864,2024-01-24 14:12:20,0.0
-3509,770,2054,2235,-243,-746,2024-01-24 14:12:20,0.0
-3719,884,2923,2205,-1119,-994,2024-01-24 14:12:20,0.0
-2994,164,1465,2018,-372,-757,2024-01-24 14:12:20,0.0
-4129,1579,2460,2180,-486,-841,2024-01-24 14:12:20,0.0
-2889,286,1567,2024,-497,-836,2024-01-24 14:12:20,0.0
-3295,687,1805,1576,-258,-606,2024-01-24 14:12:20,0.0
-3342,1124,1677,1300,-167,-574,2024-01-24 14:12:20,0.0
-3316,1460,1614,1287,-39,-583,2024-01-24 14:12:20,0.0
-3582,1280,1463,1315,55,-494,2024-01-24 14:12:21,0.0
-3786,1001,1065,1179,295,-576,2024-01-24 14:12:21,0.0
-3685,1321,990,1000,336,-446,2024-01-24 14:12:21,0.0
-4077,1042,3220,1447,-246,-321,2024-01-24 14:12:21,0.0
-3013,-158,2087,957,-90,-410,2024-01-24 14:12:21,0.0
-3030,15,2292,562,-100,-323,2024-01-24 14:12:21,0.0
-3628,1036,1830,528,-216,-383,2024-01-24 14:12:21,0.0
-3111,-113,916,230,-470,-428,2024-01-24 14:12:21,0.0
-3802,571,1427,100,-315,-366,2024-01-24 14:12:21,0.0
-2824,228,1082,144,-306,-471,2024-01-24 14:12:21,0.0
-3353,-291,1011,-49,387,-191,2024-01-24 14:12:21,0.0
-3630,342,1180,-195,225,-44,2024-01-24 14:12:21,0.0
-4647,693,1318,28,295,60,2024-01-24 14:12:21,0.0
-4676,614,1695,446,117,165,2024-01-24 14:12:24,0.0
-2710,-10,2688,13,-390,-321,2024-01-24 14:12:24,0.0
-2978,794,2313,218,-280,-318,2024-01-24 14:12:24,0.0
-4129,274,2820,561,-330,-383,2024-01-24 14:12:24,0.0
-3115,-592,1753,350,279,33,2024-01-24 14:12:24,0.0
-3367,-50,1435,-76,213,308,2024-01-24 14:12:24,0.0
-2836,256,1016,-415,165,443,2024-01-24 14:12:24,0.0
-2507,329,1158,-635,129,429,2024-01-24 14:12:24,0.0
-3438,418,1255,-851,401,357,2024-01-24 14:12:24,0.0
-3180,-557,1709,-2189,263,1201,2024-01-24 14:12:24,0.0
-3061,235,2191,-2525,440,1367,2024-01-24 14:12:24,0.0
-3110,615,1605,-2325,402,1198,2024-01-24 14:12:24,0.0
-3121,606,1299,-2363,150,1086,2024-01-24 14:12:24,0.0
-3296,493,1802,-2237,380,648,2024-01-24 14:12:24,0.0
-3714,838,1446,-1928,539,764,2024-01-24 14:12:24,0.0
-4453,-1431,2994,-2407,164,660,2024-01-24 14:12:24,0.0
-3268,324,1875,-2632,-74,1135,2024-01-24 14:12:24,0.0
-3672,-440,2517,-2640,-97,878,2024-01-24 14:12:24,0.0
-3497,146,2123,-2471,-131,888,2024-01-24 14:12:24,0.0
-2831,-82,1850,-2218,-192,732,2024-01-24 14:12:25,0.0
-3218,-229,1621,-1621,95,507,2024-01-24 14:12:25,0.0
-3113,-339,1496,-1388,-10,322,2024-01-24 14:12:25,0.0
-3768,-315,1733,-957,174,207,2024-01-24 14:12:25,0.0
-3858,-390,1189,-807,279,41,2024-01-24 14:12:25,0.0
-3673,-913,829,-862,243,45,2024-01-24 14:12:25,0.0
-3481,-511,1992,-689,104,116,2024-01-24 14:12:25,0.0
-2997,-431,3059,-898,-374,-36,2024-01-24 14:12:25,0.0
-3650,611,2504,-818,-20,-111,2024-01-24 14:12:25,0.0
-3695,-218,1917,-256,93,95,2024-01-24 14:12:25,0.0
-3423,-729,1844,-290,-108,133,2024-01-24 14:12:25,0.0
-3256,343,1824,44,-40,366,2024-01-24 14:12:25,0.0
-3574,-582,1594,251,-72,408,2024-01-24 14:12:25,0.0
-3167,-687,1445,42,76,435,2024-01-24 14:12:25,0.0
-3411,-74,1235,-145,100,366,2024-01-24 14:12:25,0.0
-3328,-138,839,-290,190,375,2024-01-24 14:12:25,0.0
-4164,528,1266,-82,290,88,2024-01-24 14:12:25,0.0
-5024,309,2084,107,418,90,2024-01-24 14:12:26,0.0
-2994,337,2688,361,-319,292,2024-01-24 14:12:26,0.0
-3392,-796,2221,-416,-36,108,2024-01-24 14:12:26,0.0
-3577,838,2286,-165,-94,341,2024-01-24 14:12:26,0.0
-2945,-6,1536,11,-233,-202,2024-01-24 14:12:26,0.0
-3050,-55,1533,-80,-298,10,2024-01-24 14:12:26,0.0
-3002,73,1044,-18,-113,-189,2024-01-24 14:12:26,0.0
-3241,-6,1173,216,224,-227,2024-01-24 14:12:26,0.0
-3042,136,1178,418,231,-146,2024-01-24 14:12:26,0.0
-4232,-539,1751,85,97,-103,2024-01-24 14:12:26,0.0
-4922,644,1226,145,353,-159,2024-01-24 14:12:26,0.0
-4017,-57,2984,275,-505,-436,2024-01-24 14:12:26,0.0
-2829,97,2141,-19,-133,-227,2024-01-24 14:12:26,0.0
-3357,1126,2266,624,-442,-250,2024-01-24 14:12:26,0.0
-2883,-287,2088,864,-264,-181,2024-01-24 14:12:26,0.0
-3074,-244,1487,273,-205,-144,2024-01-24 14:12:26,0.0
-3170,815,1401,409,38,53,2024-01-24 14:12:26,0.0
-2989,239,1169,422,125,-100,2024-01-24 14:12:26,0.0
-3444,217,1344,76,530,-25,2024-01-24 14:12:27,0.0
-3563,432,1229,50,316,-97,2024-01-24 14:12:27,0.0
-4768,-29,336,-15,449,105,2024-01-24 14:12:27,0.0
-4905,1379,3510,4,202,145,2024-01-24 14:12:27,0.0
-2764,412,2979,416,-536,208,2024-01-24 14:12:27,0.0
-3592,-252,1746,1,-71,132,2024-01-24 14:12:27,0.0
-3602,841,2330,-5,-83,-7,2024-01-24 14:12:27,0.0
-2735,390,1450,530,-468,-258,2024-01-24 14:12:27,0.0
-2633,158,1510,497,-282,-381,2024-01-24 14:12:27,0.0
-3123,9,1321,385,-132,-331,2024-01-24 14:12:27,0.0
-2967,420,1142,728,7,-276,2024-01-24 14:12:27,0.0
-3402,-465,1464,498,-11,-129,2024-01-24 14:12:27,0.0
-4354,-344,1598,-35,220,-47,2024-01-24 14:12:27,0.0
-4861,1043,909,122,671,22,2024-01-24 14:12:27,0.0
-4059,410,2540,144,-283,-481,2024-01-24 14:12:27,0.0
-2726,1012,2422,691,-79,-306,2024-01-24 14:12:27,0.0
-3377,467,2364,1081,-549,-600,2024-01-24 14:12:27,0.0
-3399,-483,2274,880,-319,-247,2024-01-24 14:12:28,0.0
-3070,276,1704,484,-201,-95,2024-01-24 14:12:28,0.0
-2910,456,1439,426,-100,-61,2024-01-24 14:12:28,0.0
-2945,378,1476,371,-29,7,2024-01-24 14:12:28,0.0
-3229,91,1357,-58,236,-125,2024-01-24 14:12:28,0.0
-3514,693,1168,-66,326,-85,2024-01-24 14:12:28,0.0
-3880,312,1200,201,284,-217,2024-01-24 14:12:28,
-5037,193,897,153,598,-70,2024-01-24 14:12:28,0.0
-4019,1476,3073,483,-32,20,2024-01-24 14:12:28,0.0
-3039,166,2313,653,0,-79,2024-01-24 14:12:28,0.0
-3434,328,2159,452,45,-79,2024-01-24 14:12:28,0.0
-3287,957,2088,1220,-19,-339,2024-01-24 14:12:28,0.0
-3198,472,1834,1721,-203,-650,2024-01-24 14:12:28,0.0
-3367,422,1939,1958,-219,-843,2024-01-24 14:12:28,0.0
-2630,367,1749,2302,-442,-889,2024-01-24 14:12:28,0.0
-3421,267,1872,2559,-215,-912,2024-01-24 14:12:28,0.0
-3183,51,1967,2376,-393,-880,2024-01-24 14:12:28,0.0
-3172,494,2222,2652,-407,-935,2024-01-24 14:12:28,0.0
-3598,449,2239,2607,-639,-962,2024-01-24 14:12:29,0.0
-3088,539,2192,2488,-518,-974,2024-01-24 14:12:29,0.0
-4160,1181,2324,1828,-702,-693,2024-01-24 14:12:29,0.0
-3106,1216,1749,2194,-496,-653,2024-01-24 14:12:29,0.0
-3433,871,1927,2154,-468,-806,2024-01-24 14:12:29,0.0
-3168,897,1648,1791,-352,-731,2024-01-24 14:12:29,0.0
-3368,1137,1813,1525,-280,-730,2024-01-24 14:12:29,0.0
-3323,1342,1530,1390,-124,-660,2024-01-24 14:12:29,0.0
-3573,1568,1584,1372,-152,-600,2024-01-24 14:12:29,0.0
-3329,1503,1267,1339,-3,-572,2024-01-24 14:12:29,0.0
-3455,1315,1750,1240,58,-577,2024-01-24 14:12:29,0.0
-3638,569,2641,1479,-350,-633,2024-01-24 14:12:29,0.0
-2876,-733,2326,957,-593,-594,2024-01-24 14:12:29,0.0
-3888,402,2155,913,-469,-547,2024-01-24 14:12:29,0.0
-3323,-10,1723,410,-548,-558,2024-01-24 14:12:29,0.0
-3065,102,1695,70,-406,-366,2024-01-24 14:12:29,0.0
-3382,576,1647,-116,-373,-358,2024-01-24 14:12:29,0.0
-2980,298,1432,122,48,-363,2024-01-24 14:12:30,0.0
-3511,349,1639,297,407,-289,2024-01-24 14:12:30,0.0
-4042,116,1562,153,499,-155,2024-01-24 14:12:30,0.0
-4612,393,1115,200,458,28,2024-01-24 14:12:30,0.0
-3984,459,3258,304,-205,-129,2024-01-24 14:12:30,0.0
-2546,383,2527,248,-261,-261,2024-01-24 14:12:30,0.0
-3567,688,2552,589,-459,-441,2024-01-24 14:12:30,0.0
-3179,-428,2264,582,-68,-181,2024-01-24 14:12:30,0.0
-2740,-110,1362,140,-77,53,2024-01-24 14:12:30,0.0
-2955,499,1406,-167,-180,226,2024-01-24 14:12:30,0.0
-2978,518,1311,-210,-232,252,2024-01-24 14:12:30,0.0
-2984,125,1606,-347,131,256,2024-01-24 14:12:30,0.0
-3732,975,1670,-426,42,181,2024-01-24 14:12:30,0.0
-4560,776,1301,-64,553,79,2024-01-24 14:12:30,0.0
-4161,314,3483,135,466,425,2024-01-24 14:12:30,0.0
-3095,-130,2556,-502,-26,516,2024-01-24 14:12:30,0.0
-3459,-350,2502,-1461,88,805,2024-01-24 14:12:30,0.0
-3707,1527,2439,-1293,-64,593,2024-01-24 14:12:30,0.0
-2466,271,1069,-950,-221,323,2024-01-24 14:12:31,0.0
-2617,356,1421,-769,36,163,2024-01-24 14:12:31,0.0
-3104,477,1265,-521,141,-54,2024-01-24 14:12:31,0.0
-3100,370,1289,11,449,-110,2024-01-24 14:12:31,0.0
-3901,329,1436,-58,73,-130,2024-01-24 14:12:31,0.0
-4689,515,1745,-220,264,-105,2024-01-24 14:12:31,0.0
-4302,514,2958,496,-187,-244,2024-01-24 14:12:31,0.0
-2485,199,2696,670,-230,-604,2024-01-24 14:12:31,0.0
-3670,466,2197,1183,-330,-572,2024-01-24 14:12:31,0.0
-3344,-380,2616,919,-165,-527,2024-01-24 14:12:31,0.0
-2498,-125,1354,784,-78,-255,2024-01-24 14:12:31,0.0
-3107,336,1849,583,146,-96,2024-01-24 14:12:31,0.0
-2604,558,918,404,596,-31,2024-01-24 14:12:31,0.0
-3956,184,809,127,474,-43,2024-01-24 14:12:31,0.0
-3815,725,1050,196,330,-88,2024-01-24 14:12:31,0.0
-4356,692,232,402,241,89,2024-01-24 14:12:31,0.0
-4769,-604,1904,103,578,145,2024-01-24 14:12:31,0.0
-3496,1499,2574,356,-206,440,2024-01-24 14:12:31,0.0
-3798,-674,2064,-92,-346,85,2024-01-24 14:12:32,0.0
-3258,-155,2010,-694,-297,395,2024-01-24 14:12:32,0.0
-3824,1843,2158,211,-234,-148,2024-01-24 14:12:32,0.0
-2790,-60,887,675,-157,-411,2024-01-24 14:12:33,0.0
-3378,-72,1559,682,-151,-373,2024-01-24 14:12:33,0.0
-2983,1070,1143,1290,-25,-549,2024-01-24 14:12:33,0.0
-3308,535,1612,2086,110,-710,2024-01-24 14:12:33,0.0
-3346,-1,1400,2042,-353,-822,2024-01-24 14:12:33,0.0
-3851,-554,2409,1267,-369,-722,2024-01-24 14:12:33,0.0
-3894,1091,1936,1196,-139,-723,2024-01-24 14:12:33,0.0
-3377,-125,1628,977,-229,-821,2024-01-24 14:12:33,0.0
-3282,-383,1330,428,78,-699,2024-01-24 14:12:33,0.0
-3157,472,1364,312,-10,-598,2024-01-24 14:12:33,0.0
-3815,-278,1562,444,482,-576,2024-01-24 14:12:33,0.0
-3765,420,1181,501,319,-207,2024-01-24 14:12:33,0.0
-3900,54,1028,562,662,-350,2024-01-24 14:12:33,0.0
-3729,599,762,878,326,-19,2024-01-24 14:12:33,0.0
-3786,1203,2857,1086,-482,-605,2024-01-24 14:12:33,0.0
-2948,649,2255,1722,-355,-672,2024-01-24 14:12:33,0.0
-4048,-23,2795,1919,-244,-616,2024-01-24 14:12:33,0.0
-3020,-140,1379,1553,125,-365,2024-01-24 14:12:33,0.0
-2840,207,1042,1120,72,-243,2024-01-24 14:12:33,0.0
-3161,726,1177,916,-316,-41,2024-01-24 14:12:33,0.0
-3246,-3,1304,428,-255,-117,2024-01-24 14:12:34,0.0
-3853,450,889,95,197,-101,2024-01-24 14:12:34,0.0
-4266,121,1355,-26,169,-16,2024-01-24 14:12:34,0.0
-4715,434,1932,-46,402,74,2024-01-24 14:12:34,0.0
-3772,993,2961,60,-151,287,2024-01-24 14:12:34,0.0
-2908,48,1986,-541,513,387,2024-01-24 14:12:34,0.0
-3940,941,2308,-635,183,317,2024-01-24 14:12:34,0.0
-2679,724,1220,-331,-342,-223,2024-01-24 14:12:34,0.0
-2775,0,1444,-213,-259,-91,2024-01-24 14:12:34,0.0
-3171,276,1068,-77,-58,-179,2024-01-24 14:12:34,0.0
-3473,393,1024,225,171,-315,2024-01-24 14:12:34,0.0
-3307,-264,761,335,473,-187,2024-01-24 14:12:34,0.0
-4708,-46,880,-63,262,-32,2024-01-24 14:12:34,
-4201,815,925,77,110,-62,2024-01-24 14:12:34,0.0
-3556,477,2751,169,-378,-536,2024-01-24 14:12:34,0.0
-3076,890,2052,506,-136,-628,2024-01-24 14:12:34,0.0
-4025,640,2114,1307,-597,-409,2024-01-24 14:12:34,0.0
-3749,-789,2177,911,6,-239,2024-01-24 14:12:34,0.0
-2677,-41,1102,303,31,171,2024-01-24 14:12:35,0.0
-3064,998,1411,292,-24,149,2024-01-24 14:12:35,0.0
-2971,344,1163,249,208,175,2024-01-24 14:12:35,0.0
-3812,271,950,-207,444,-97,2024-01-24 14:12:35,0.0
-4320,368,966,12,266,-19,2024-01-24 14:12:35,0.0
-4084,149,713,70,200,78,2024-01-24 14:12:35,0.0
-5030,-98,2388,-116,150,376,2024-01-24 14:12:35,0.0
-2964,1128,2509,-480,61,360,2024-01-24 14:12:35,0.0
-3102,-314,1868,-917,187,474,2024-01-24 14:12:35,0.0
-4147,1119,1954,-775,122,357,2024-01-24 14:12:35,0.0
-2793,654,987,-423,-331,-67,2024-01-24 14:12:35,0.0
-3229,-228,952,-359,-63,11,2024-01-24 14:12:35,0.0
-3231,223,818,-302,38,-63,2024-01-24 14:12:35,0.0
-3519,231,847,127,481,-162,2024-01-24 14:12:35,0.0
-3407,-157,731,201,164,-84,2024-01-24 14:12:35,0.0
-4537,12,704,-46,229,-289,2024-01-24 14:12:35,0.0
-4705,307,1076,310,445,-140,2024-01-24 14:12:35,0.0
-4334,252,1366,-214,-350,-731,2024-01-24 14:12:36,0.0
-2673,251,1913,-5,-510,-72,2024-01-24 14:12:36,0.0
-3524,1816,2111,1163,-715,-422,2024-01-24 14:12:36,0.0
-3729,-395,2013,1111,-683,-229,2024-01-24 14:12:36,0.0
-3117,401,1252,968,-476,-88,2024-01-24 14:12:36,0.0
-3288,713,1508,976,-386,-324,2024-01-24 14:12:36,0.0
-3201,343,1476,863,-314,-182,2024-01-24 14:12:36,0.0
-3520,570,1663,642,106,-290,2024-01-24 14:12:36,0.0
-3529,736,1085,726,234,-391,2024-01-24 14:12:36,0.0
-3844,578,1436,743,267,-434,2024-01-24 14:12:36,0.0
-4656,219,2820,662,326,-108,2024-01-24 14:12:36,0.0
-2536,547,1965,620,-431,-55,2024-01-24 14:12:36,0.0
-3398,136,2500,539,-366,-127,2024-01-24 14:12:36,0.0
-3668,1200,2493,1150,-197,-254,2024-01-24 14:12:36,0.0
-2986,562,1929,1565,-159,-694,2024-01-24 14:12:36,0.0
-3493,349,1970,1817,-163,-804,2024-01-24 14:12:36,0.0
-2934,473,1717,2036,-253,-965,2024-01-24 14:12:36,0.0
-3299,-97,2053,2261,-280,-851,2024-01-24 14:12:36,0.0
-3014,11,1911,2232,-246,-808,2024-01-24 14:12:37,0.0
-3075,321,1957,2273,-333,-789,2024-01-24 14:12:37,0.0
-3477,904,2334,2391,-658,-857,2024-01-24 14:12:37,0.0
-3602,229,2401,1697,-771,-748,2024-01-24 14:12:37,0.0
-3550,832,1540,1363,-619,-470,2024-01-24 14:12:37,0.0
-3582,1601,2137,1713,-692,-688,2024-01-24 14:12:37,0.0
-3143,465,1730,1577,-94,-834,2024-01-24 14:12:37,0.0
-3723,740,1526,1215,118,-624,2024-01-24 14:12:37,0.0
-3390,1299,1186,1043,142,-487,2024-01-24 14:12:37,0.0
-3213,1821,1652,1126,120,-422,2024-01-24 14:12:37,0.0
-3280,1960,1662,1253,121,-372,2024-01-24 14:12:37,0.0
-3414,2023,1460,1542,326,-472,2024-01-24 14:12:37,0.0
-3730,1194,2117,1661,-252,-592,2024-01-24 14:12:37,0.0
-3649,-1043,2402,1392,-138,-535,2024-01-24 14:12:37,0.0
-3976,-196,1504,955,-112,-482,2024-01-24 14:12:37,0.0
-3807,443,1785,540,-214,-683,2024-01-24 14:12:37,0.0
-2891,-357,1171,509,-357,-326,2024-01-24 14:12:38,0.0
-3368,-148,1232,135,-315,-361,2024-01-24 14:12:38,0.0
-3088,111,1119,-74,-285,-254,2024-01-24 14:12:38,0.0
-3431,-5,999,35,-81,-213,2024-01-24 14:12:38,0.0
-3195,279,968,2,30,-145,2024-01-24 14:12:38,0.0
-4780,417,1407,-113,-72,-82,2024-01-24 14:12:38,0.0
-4713,232,1065,201,382,-32,2024-01-24 14:12:38,0.0
-4752,-121,2410,-89,-104,27,2024-01-24 14:12:38,0.0
-2434,282,2101,-184,-148,-23,2024-01-24 14:12:38,0.0
-3465,802,2480,363,-320,-235,2024-01-24 14:12:38,0.0
-3535,-352,2255,203,78,18,2024-01-24 14:12:38,0.0
-2754,54,1256,80,-152,167,2024-01-24 14:12:38,0.0
-2945,78,1204,-92,141,177,2024-01-24 14:12:38,0.0
-3269,666,1048,-240,49,334,2024-01-24 14:12:38,0.0
-3116,358,697,-161,4,199,2024-01-24 14:12:38,0.0
-3665,309,1324,23,260,36,2024-01-24 14:12:38,0.0
-4715,866,912,28,300,-11,2024-01-24 14:12:38,0.0
-5021,-76,2250,-251,477,141,2024-01-24 14:12:38,0.0
-3241,517,3137,-111,-342,297,2024-01-24 14:12:38,0.0
-3374,-891,1958,-873,-278,589,2024-01-24 14:12:39,0.0
-3934,1378,2214,-1027,119,457,2024-01-24 14:12:39,0.0
-2590,1047,1429,-213,-386,46,2024-01-24 14:12:39,0.0
-2489,360,1119,172,-168,-287,2024-01-24 14:12:39,0.0
-3219,-122,1226,109,36,-386,2024-01-24 14:12:39,0.0
-3037,122,1018,271,317,-261,2024-01-24 14:12:39,0.0
-3444,-261,775,302,568,-96,2024-01-24 14:12:39,0.0
-5276,-180,1462,-410,287,-165,2024-01-24 14:12:39,0.0
-4671,757,1206,-79,528,109,2024-01-24 14:12:39,0.0
-3658,-100,2861,-98,-128,-423,2024-01-24 14:12:39,0.0
-3043,1308,2322,208,-375,-334,2024-01-24 14:12:39,0.0
-3879,355,2312,828,-683,-462,2024-01-24 14:12:39,0.0
-2958,-533,1641,643,350,-175,2024-01-24 14:12:39,0.0
-2930,-225,1034,167,-18,110,2024-01-24 14:12:39,0.0
-3286,271,1087,-81,16,241,2024-01-24 14:12:39,0.0
-2770,717,655,-163,115,275,2024-01-24 14:12:39,0.0
-3403,518,1176,-147,128,-7,2024-01-24 14:12:39,0.0
-3826,897,1194,-83,39,-11,2024-01-24 14:12:40,0.0
-4864,-56,780,17,416,6,2024-01-24 14:12:40,0.0
-5157,393,2889,-112,103,461,2024-01-24 14:12:40,0.0
-2554,594,2598,-480,-203,264,2024-01-24 14:12:40,0.0
-3688,-283,2042,-807,43,428,2024-01-24 14:12:40,0.0
-3990,1680,2078,-321,25,240,2024-01-24 14:12:40,0.0
-2468,445,1063,116,-428,-220,2024-01-24 14:12:40,0.0
-3350,35,1190,328,-561,-99,2024-01-24 14:12:40,
-3089,-166,1069,266,76,-202,2024-01-24 14:12:40,0.0
-3208,403,1427,596,20,-139,2024-01-24 14:12:40,0.0
-3863,259,922,760,455,-234,2024-01-24 14:12:40,0.0
-3977,419,1310,645,258,-373,2024-01-24 14:12:40,0.0
-4099,390,652,882,149,-465,2024-01-24 14:12:40,0.0
-4543,1047,2684,1236,-195,-837,2024-01-24 14:12:40,0.0
-2765,382,1979,1082,-443,-410,2024-01-24 14:12:40,0.0
-3591,1571,2036,1667,-658,-605,2024-01-24 14:12:40,0.0
-3309,306,2132,1648,-468,-466,2024-01-24 14:12:40,0.0
-3090,768,1520,1599,-365,-426,2024-01-24 14:12:40,0.0
-3215,1008,1742,1627,-184,-597,2024-01-24 14:12:41,0.0
-3112,894,1562,1715,-150,-491,2024-01-24 14:12:41,0.0
-3579,1026,1275,1495,45,-606,2024-01-24 14:12:41,0.0
-3380,524,1205,1137,67,-595,2024-01-24 14:12:41,0.0
-3430,947,1314,1088,129,-839,2024-01-24 14:12:41,0.0
-4279,566,2498,1028,-34,-671,2024-01-24 14:12:41,0.0
-3288,163,2132,1108,-123,-395,2024-01-24 14:12:41,0.0
-4072,367,1492,1166,-98,-538,2024-01-24 14:12:41,0.0
-3762,586,1840,1410,-269,-630,2024-01-24 14:12:41,0.0
-3131,1220,1541,1815,-212,-873,2024-01-24 14:12:41,0.0
-3233,-211,1629,2116,-550,-1043,2024-01-24 14:12:41,0.0
-3339,-638,1367,1783,-324,-919,2024-01-24 14:12:41,0.0
-3469,107,1550,1402,-171,-804,2024-01-24 14:12:41,0.0
-3648,360,1299,1243,-169,-600,2024-01-24 14:12:42,0.0
-3527,105,1424,1230,-30,-628,2024-01-24 14:12:42,0.0
-4001,-272,1237,1225,349,-412,2024-01-24 14:12:42,0.0
-3885,676,1058,1554,387,-322,2024-01-24 14:12:42,0.0
-3938,705,3329,1799,-248,-670,2024-01-24 14:12:42,0.0
-2584,439,1991,1729,-598,-568,2024-01-24 14:12:42,0.0
-3596,846,2355,2237,-650,-827,2024-01-24 14:12:42,0.0
-3337,-94,2355,2078,-681,-768,2024-01-24 14:12:42,0.0
-3217,336,1676,1924,-244,-711,2024-01-24 14:12:42,0.0
-3334,745,1565,1631,-285,-645,2024-01-24 14:12:42,0.0
-3100,260,1537,1196,-23,-488,2024-01-24 14:12:42,0.0
-3793,314,1611,557,217,-374,2024-01-24 14:12:42,0.0
-3788,675,934,484,520,-279,2024-01-24 14:12:42,0.0
-4369,146,854,153,446,-218,2024-01-24 14:12:42,0.0
-4359,1621,3550,492,-267,-3,2024-01-24 14:12:42,0.0
-2815,-54,3171,566,-129,-199,2024-01-24 14:12:42,0.0
-3459,-207,2080,-148,67,146,2024-01-24 14:12:42,0.0
-3361,1498,2350,49,-191,-77,2024-01-24 14:12:42,0.0
-2613,-65,1556,336,-309,-295,2024-01-24 14:12:42,0.0
-3069,241,1387,188,-510,-267,2024-01-24 14:12:42,0.0
-2916,-32,1213,133,-193,-314,2024-01-24 14:12:42,0.0
-3072,171,1400,449,-202,-303,2024-01-24 14:12:42,0.0
-3587,-494,1670,-9,138,-93,2024-01-24 14:12:42,0.0
-4516,-59,1635,-426,324,-40,2024-01-24 14:12:43,0.0
-4439,500,1778,141,618,263,2024-01-24 14:12:43,0.0
-3279,519,3386,-350,-99,-357,2024-01-24 14:12:43,0.0
-2966,648,2651,-47,-96,-92,2024-01-24 14:12:43,0.0
-3617,484,2430,717,-203,-255,2024-01-24 14:12:43,0.0
-2760,-714,1864,375,11,36,2024-01-24 14:12:43,0.0
-2769,85,1514,-151,134,288,2024-01-24 14:12:43,0.0
-3026,885,1173,-30,158,256,2024-01-24 14:12:43,0.0
-2883,563,1206,70,53,91,2024-01-24 14:12:43,0.0
-3640,187,1554,-112,488,-72,2024-01-24 14:12:43,0.0
-4132,965,1555,168,190,-90,2024-01-24 14:12:43,0.0
-4998,-414,1210,-100,654,-27,2024-01-24 14:12:43,0.0
-4302,415,2755,-76,426,404,2024-01-24 14:12:43,0.0
-2536,22,2106,-557,-7,283,2024-01-24 14:12:43,0.0
-3357,-189,2299,-1050,60,544,2024-01-24 14:12:43,0.0
-3239,1329,1650,-674,-66,171,2024-01-24 14:12:43,0.0
-2737,441,873,-184,-509,-63,2024-01-24 14:12:43,0.0
-3363,140,1265,-48,-450,-108,2024-01-24 14:12:44,0.0
-2876,-155,1289,60,88,-326,2024-01-24 14:12:44,0.0
-3330,-202,611,206,197,-136,2024-01-24 14:12:44,0.0
-4179,-112,1359,-238,-45,-11,2024-01-24 14:12:44,0.0
-4460,205,1191,-416,268,-134,2024-01-24 14:12:44,0.0
-4794,968,2883,-9,-680,-56,2024-01-24 14:12:44,0.0
-2698,-293,2356,193,-98,-448,2024-01-24 14:12:44,0.0
-3526,1097,2444,624,-423,-360,2024-01-24 14:12:44,0.0
-3609,-350,2487,843,-100,-211,2024-01-24 14:12:44,0.0
-2681,-486,1379,383,192,68,2024-01-24 14:12:44,0.0
-3311,216,1387,-19,78,269,2024-01-24 14:12:44,0.0
-2980,692,989,-115,92,280,2024-01-24 14:12:44,0.0
-3152,84,1158,-144,293,94,2024-01-24 14:12:44,0.0
-3418,711,1064,-180,479,11,2024-01-24 14:12:44,0.0
-4184,478,833,177,293,-187,2024-01-24 14:12:44,0.0
-4962,-321,1502,81,448,105,2024-01-24 14:12:44,0.0
-3920,1598,2898,444,-379,336,2024-01-24 14:12:44,0.0
-3248,-238,2061,228,-152,102,2024-01-24 14:12:45,0.0
-3960,312,2174,-36,-17,224,2024-01-24 14:12:45,0.0
-3006,1655,1757,1012,-178,-257,2024-01-24 14:12:45,0.0
-3049,695,1638,1657,-232,-679,2024-01-24 14:12:45,0.0
-3253,240,1764,2021,-322,-817,2024-01-24 14:12:45,0.0
-2810,755,1572,2499,-170,-893,2024-01-24 14:12:45,0.0
-3515,150,1663,2757,-136,-818,2024-01-24 14:12:45,0.0
-3446,-207,1857,2299,-308,-838,2024-01-24 14:12:45,0.0
-3679,979,1825,2464,-297,-806,2024-01-24 14:12:45,0.0
-3373,749,1877,2565,-672,-975,2024-01-24 14:12:45,0.0
-3715,838,2272,2037,-1032,-761,2024-01-24 14:12:45,0.0
-3158,1055,1613,1998,-596,-481,2024-01-24 14:12:45,0.0
-3471,1318,1840,2362,-595,-733,2024-01-24 14:12:45,0.0
-3035,801,1690,2109,-599,-586,2024-01-24 14:12:45,0.0
-3463,1166,1883,1865,-530,-633,2024-01-24 14:12:45,0.0
-3610,1212,1736,1746,-358,-654,2024-01-24 14:12:45,0.0
-3505,1289,1441,1463,-216,-639,2024-01-24 14:12:45,0.0
-3652,1590,1557,1217,10,-616,2024-01-24 14:12:45,0.0
-3232,1649,1085,1248,280,-585,2024-01-24 14:12:46,0.0
-3353,1774,1846,1435,44,-595,2024-01-24 14:12:46,
-3461,-48,2515,1257,-658,-525,2024-01-24 14:12:46,0.0
-3520,-254,1741,1038,-55,-621,2024-01-24 14:12:46,0.0
-3837,625,1906,933,-186,-701,2024-01-24 14:12:46,0.0
-3238,-337,1503,704,-323,-643,2024-01-24 14:12:46,0.0
-3128,-78,1176,418,-248,-513,2024-01-24 14:12:46,0.0
-3458,292,1138,222,-243,-496,2024-01-24 14:12:46,0.0
-3529,-154,931,171,-247,-247,2024-01-24 14:12:46,0.0
-3502,-140,1046,-49,98,-153,2024-01-24 14:12:46,0.0
-3671,187,1016,-174,180,-93,2024-01-24 14:12:46,0.0
-4405,581,1077,26,158,29,2024-01-24 14:12:46,0.0
-5433,115,1865,29,98,97,2024-01-24 14:12:46,0.0
-3293,-11,2999,58,-489,206,2024-01-24 14:12:46,0.0
-3038,639,2063,742,78,-334,2024-01-24 14:12:46,0.0
-3459,16,2485,771,-375,-362,2024-01-24 14:12:46,0.0
-2986,-180,1898,494,41,-19,2024-01-24 14:12:46,0.0
-2591,336,1399,385,-111,81,2024-01-24 14:12:47,0.0
-3392,38,1389,175,49,85,2024-01-24 14:12:47,0.0
-2745,198,925,-122,244,219,2024-01-24 14:12:47,0.0
-3561,755,1177,-130,536,25,2024-01-24 14:12:47,0.0
-4191,459,1172,-20,555,28,2024-01-24 14:12:47,0.0
-4550,99,-145,-332,621,92,2024-01-24 14:12:47,0.0
-5217,982,2931,22,273,559,2024-01-24 14:12:47,0.0
-2425,345,2691,-218,-541,205,2024-01-24 14:12:47,0.0
-3758,-972,2214,-978,-198,410,2024-01-24 14:12:47,0.0
-4032,1851,1864,-645,79,64,2024-01-24 14:12:47,0.0
-2582,324,1197,-215,-428,-66,2024-01-24 14:12:47,0.0
-2577,-154,1163,-148,-148,-109,2024-01-24 14:12:47,0.0
-3094,-123,1020,-278,-110,-177,2024-01-24 14:12:47,0.0
-3204,450,1187,55,158,-161,2024-01-24 14:12:47,0.0
-3578,-254,789,314,237,-72,2024-01-24 14:12:47,0.0
-4964,-520,1028,-151,406,-49,2024-01-24 14:12:47,0.0
-5287,746,1677,-210,483,-103,2024-01-24 14:12:47,0.0
-3635,168,2618,-458,-160,-379,2024-01-24 14:12:47,0.0
-3263,984,2283,49,-507,-140,2024-01-24 14:12:48,0.0
-3382,250,2187,438,-502,-234,2024-01-24 14:12:48,0.0
-2914,-78,1818,478,67,-43,2024-01-24 14:12:48,0.0
-2849,105,1199,257,-231,72,2024-01-24 14:12:48,0.0
-3275,527,1145,216,97,93,2024-01-24 14:12:48,0.0
-3096,632,904,239,-56,124,2024-01-24 14:12:48,0.0
-3351,146,1206,-181,374,-31,2024-01-24 14:12:48,0.0
-3263,422,1049,-176,172,24,2024-01-24 14:12:48,0.0
-4560,670,139,-190,534,-199,2024-01-24 14:12:48,0.0
-5139,499,1820,-40,56,159,2024-01-24 14:12:48,0.0
-3560,944,3563,559,-375,100,2024-01-24 14:12:48,0.0
-3263,-772,2149,-111,-394,146,2024-01-24 14:12:48,0.0
-3690,508,2304,-493,139,238,2024-01-24 14:12:49,0.0
-3062,841,1962,1620,-339,-745,2024-01-24 14:12:49,0.0
-3367,1217,1710,1475,-208,-744,2024-01-24 14:12:49,0.0
-3335,953,1624,1456,61,-812,2024-01-24 14:12:49,0.0
-3501,844,1251,1248,242,-794,2024-01-24 14:12:49,0.0
-3811,912,1380,1068,307,-728,2024-01-24 14:12:49,0.0
-4069,1564,2930,1236,79,-535,2024-01-24 14:12:49,0.0
-2671,180,2578,1422,-494,-653,2024-01-24 14:12:49,0.0
-2858,133,1840,1213,-291,-540,2024-01-24 14:12:49,0.0
-3754,1084,2518,1437,-307,-686,2024-01-24 14:12:50,0.0
-3416,709,1945,1440,-512,-1022,2024-01-24 14:12:50,0.0
-3267,583,1926,1409,-774,-1112,2024-01-24 14:12:50,0.0
-2989,-66,1823,1298,-598,-1107,2024-01-24 14:12:50,0.0
-3039,-414,1471,851,-99,-877,2024-01-24 14:12:50,0.0
-3210,-49,1419,640,75,-540,2024-01-24 14:12:50,0.0
-3851,110,1851,548,334,-284,2024-01-24 14:12:50,0.0
-4468,345,1210,589,565,-219,2024-01-24 14:12:50,0.0
-4117,1325,3623,1134,-113,-430,2024-01-24 14:12:50,0.0
-2450,714,2231,1371,-297,-572,2024-01-24 14:12:50,0.0
-3181,853,2749,1608,-626,-719,2024-01-24 14:12:50,0.0
-3147,257,2417,1680,-393,-551,2024-01-24 14:12:50,0.0
-2925,-22,1712,1207,-213,-547,2024-01-24 14:12:50,0.0
-2893,747,1557,808,-104,-264,2024-01-24 14:12:50,0.0
-2934,502,1479,668,-84,-209,2024-01-24 14:12:50,0.0
-3114,469,1366,454,244,-121,2024-01-24 14:12:50,0.0
-3574,553,1503,-7,387,-120,2024-01-24 14:12:50,0.0
-4506,565,1461,39,405,-159,2024-01-24 14:12:50,0.0
-5006,867,2556,-4,389,57,2024-01-24 14:12:51,0.0
-3058,751,3438,383,-433,100,2024-01-24 14:12:51,0.0
-3015,-271,2160,-393,-140,313,2024-01-24 14:12:51,0.0
-3251,1072,2698,-454,45,225,2024-01-24 14:12:51,0.0
-2724,807,1775,21,-65,-184,2024-01-24 14:12:51,0.0
-2921,217,1273,127,-503,-207,2024-01-24 14:12:51,0.0
-2680,-13,1482,113,-51,-299,2024-01-24 14:12:51,0.0
-3207,13,1423,353,472,-293,2024-01-24 14:12:51,0.0
-3002,-174,1075,151,417,-78,2024-01-24 14:12:51,0.0
-5161,187,1483,-194,472,-70,2024-01-24 14:12:51,0.0
-4609,769,2487,260,451,-51,2024-01-24 14:12:51,0.0
-3171,304,2719,-22,-310,-531,2024-01-24 14:12:51,0.0
-3200,898,2475,67,-283,-326,2024-01-24 14:12:51,0.0
-3672,408,2364,802,-246,-228,2024-01-24 14:12:51,0.0
-2854,-685,1550,464,2,-39,2024-01-24 14:12:51,0.0
-2902,-266,1352,-147,150,290,2024-01-24 14:12:51,0.0
-3028,880,892,-335,190,352,2024-01-24 14:12:51,0.0
-2649,114,1264,-258,189,241,2024-01-24 14:12:52,0.0
-3879,690,1180,-422,311,202,2024-01-24 14:12:52,0.0
-4541,823,1352,-76,-8,35,2024-01-24 14:12:52,0.0
-4853,-280,1453,-330,540,91,2024-01-24 14:12:52,0.0
-3489,823,3087,-361,-220,406,2024-01-24 14:12:52,0.0
-2817,-471,2218,-799,-122,469,2024-01-24 14:12:52,0.0
-4246,555,2588,-928,40,534,2024-01-24 14:12:52,0.0
-2865,966,1677,-488,-116,12,2024-01-24 14:12:52,0.0
-2973,417,1383,-192,-278,-72,2024-01-24 14:12:52,0.0
-3213,-95,1161,-113,-254,-261,2024-01-24 14:12:52,0.0
-2909,140,1233,105,17,-175,2024-01-24 14:12:52,
-3300,-110,1281,443,460,-154,2024-01-24 14:12:52,0.0
-3412,-25,939,149,132,-118,2024-01-24 14:12:52,0.0
-4590,283,1344,-184,204,-385,2024-01-24 14:12:52,0.0
-4599,773,2201,491,520,-362,2024-01-24 14:12:52,0.0
-3547,-150,2660,138,-575,-663,2024-01-24 14:12:52,0.0
-2959,972,2470,647,-381,-297,2024-01-24 14:12:52,0.0
-3702,459,2331,1261,-461,-423,2024-01-24 14:12:52,0.0
-2962,37,1666,1213,-308,-517,2024-01-24 14:12:53,0.0
-3217,126,1883,1112,-229,-380,2024-01-24 14:12:53,0.0
-2989,638,1596,1067,-145,-392,2024-01-24 14:12:53,0.0
-3343,577,1826,1041,168,-432,2024-01-24 14:12:53,0.0
-3362,492,1240,888,150,-452,2024-01-24 14:12:53,0.0
-3597,809,1394,1011,254,-541,2024-01-24 14:12:53,0.0
-4014,636,1874,1110,74,-602,2024-01-24 14:12:53,0.0
-4247,-181,3373,916,272,-192,2024-01-24 14:12:53,0.0
-2708,331,1454,895,-334,-292,2024-01-24 14:12:53,0.0
-3439,62,2382,867,-122,-282,2024-01-24 14:12:53,0.0
-3517,1180,2062,1300,-289,-496,2024-01-24 14:12:53,0.0
-2947,690,1860,1790,-136,-820,2024-01-24 14:12:53,0.0
-3434,-53,2105,1803,-377,-993,2024-01-24 14:12:53,0.0
-3233,34,1982,1739,-251,-940,2024-01-24 14:12:53,0.0
-3166,88,1861,1520,-237,-861,2024-01-24 14:12:53,0.0
-3379,347,1940,1496,171,-779,2024-01-24 14:12:53,0.0
-3374,107,1732,1869,59,-576,2024-01-24 14:12:53,0.0
-3449,448,1622,2006,-8,-690,2024-01-24 14:12:54,0.0
-3342,1450,3045,2513,-392,-712,2024-01-24 14:12:54,0.0
-3202,78,2197,2121,-424,-1011,2024-01-24 14:12:54,0.0
-3549,1133,2235,2199,-527,-726,2024-01-24 14:12:54,0.0
-3296,429,2030,2057,-396,-822,2024-01-24 14:12:54,0.0
-2882,681,1461,1708,-110,-708,2024-01-24 14:12:54,0.0
-3136,1075,1532,1412,-182,-521,2024-01-24 14:12:54,0.0
-3542,1197,2016,1126,-341,-596,2024-01-24 14:12:54,0.0
-3554,1137,1544,1044,38,-443,2024-01-24 14:12:54,0.0
-4237,1719,1161,858,296,-406,2024-01-24 14:12:54,0.0
-3123,1170,935,657,0,-184,2024-01-24 14:12:54,0.0
-3491,618,3558,604,-259,-145,2024-01-24 14:12:54,0.0
-3301,-28,2256,763,-123,-246,2024-01-24 14:12:54,0.0
-3959,135,2121,574,-148,-158,2024-01-24 14:12:54,0.0
-3709,450,1970,252,-365,-421,2024-01-24 14:12:54,0.0
-2910,-466,1542,-235,-14,-201,2024-01-24 14:12:54,0.0
-2878,564,1037,-456,-106,-285,2024-01-24 14:12:54,0.0
-3224,458,1403,-144,-157,-269,2024-01-24 14:12:54,0.0
-3424,293,1150,70,154,-358,2024-01-24 14:12:55,0.0
-3977,-183,1623,126,578,-179,2024-01-24 14:12:55,0.0
-4776,40,680,46,440,-113,2024-01-24 14:12:55,0.0
-4773,391,2766,95,-357,92,2024-01-24 14:12:55,0.0
-2340,347,2502,12,-282,-197,2024-01-24 14:12:55,0.0
-3615,788,2866,259,-314,-351,2024-01-24 14:12:55,0.0
-3196,199,2416,760,-265,-221,2024-01-24 14:12:55,0.0
-2954,-355,1397,845,-1,-13,2024-01-24 14:12:55,0.0
-3193,-187,1183,181,97,130,2024-01-24 14:12:55,0.0
-2789,741,992,64,449,341,2024-01-24 14:12:55,0.0
-2639,102,1080,-103,548,92,2024-01-24 14:12:55,0.0
-3961,587,1023,-276,152,204,2024-01-24 14:12:55,0.0
-4558,434,670,-232,356,-135,2024-01-24 14:12:55,0.0
-5349,-344,2474,-244,494,153,2024-01-24 14:12:55,0.0
-3112,1329,3017,-141,-753,278,2024-01-24 14:12:55,0.0
-3134,-981,2304,-943,-178,507,2024-01-24 14:12:55,0.0
-4093,1216,2468,-931,378,504,2024-01-24 14:12:55,0.0
-2535,880,975,-552,-368,-153,2024-01-24 14:12:56,0.0
-2854,133,1016,-246,-304,-111,2024-01-24 14:12:56,0.0
-3067,-74,977,-219,-222,-273,2024-01-24 14:12:56,0.0
-3101,179,1106,137,365,-271,2024-01-24 14:12:56,0.0
-3480,-213,852,361,417,-85,2024-01-24 14:12:56,0.0
-4889,-400,867,-210,458,-225,2024-01-24 14:12:56,0.0
-4675,1100,1699,20,454,-294,2024-01-24 14:12:56,0.0
-3947,288,2774,134,-444,-782,2024-01-24 14:12:56,0.0
-3356,457,2505,190,-338,-338,2024-01-24 14:12:56,0.0
-3741,554,2398,922,-159,-389,2024-01-24 14:12:56,0.0
-2962,-705,1505,846,-23,-174,2024-01-24 14:12:56,0.0
-2785,-553,1074,251,20,68,2024-01-24 14:12:56,0.0
-3409,834,1106,94,-53,206,2024-01-24 14:12:56,0.0
-2896,350,860,166,-98,60,2024-01-24 14:12:56,0.0
-3396,143,1225,46,137,-5,2024-01-24 14:12:56,0.0
-3387,423,877,-35,78,-94,2024-01-24 14:12:56,0.0
-4877,901,838,225,256,-168,2024-01-24 14:12:56,0.0
-5221,389,1731,351,284,30,2024-01-24 14:12:56,0.0
-3124,1118,3276,493,-65,48,2024-01-24 14:12:57,0.0
-3400,-326,2377,314,-250,-48,2024-01-24 14:12:57,0.0
-3687,792,2395,457,-72,-24,2024-01-24 14:12:57,0.0
-3045,581,1887,1061,-77,-427,2024-01-24 14:12:57,0.0
-2907,420,1888,1479,-191,-607,2024-01-24 14:12:57,0.0
-3170,451,1745,1687,-55,-929,2024-01-24 14:12:57,0.0
-3303,502,1410,1853,-444,-916,2024-01-24 14:12:57,0.0
-3412,120,963,1945,-55,-806,2024-01-24 14:12:57,0.0
-3659,475,1810,1825,-182,-700,2024-01-24 14:12:57,0.0
-3919,-53,1529,1986,140,-644,2024-01-24 14:12:57,0.0
-2839,1411,2299,2394,-102,-448,2024-01-24 14:12:57,0.0
-3852,1113,2883,2199,-1114,-1199,2024-01-24 14:12:57,0.0
-2760,451,2132,2538,-504,-931,2024-01-24 14:12:57,0.0
-3626,939,2856,2644,-830,-1041,2024-01-24 14:12:57,0.0
-2921,75,1762,2294,-505,-988,2024-01-24 14:12:57,0.0
-3069,1330,1788,1773,-380,-813,2024-01-24 14:12:57,0.0
-3367,689,2174,1566,-443,-806,2024-01-24 14:12:57,0.0
-3369,744,1843,1011,-161,-493,2024-01-24 14:12:58,0.0
-3745,779,1190,900,619,-438,2024-01-24 14:12:58,0.0
-3409,1581,1009,818,541,-662,2024-01-24 14:12:58,0.0
-3596,1070,3427,1079,-183,-465,2024-01-24 14:12:58,0.0
-3137,21,2623,1247,-149,-453,2024-01-24 14:12:58,0.0
-3897,834,1552,1306,37,-413,2024-01-24 14:12:58,
-3564,1608,2187,1539,-373,-955,2024-01-24 14:12:58,0.0
-3261,166,1814,1652,-232,-940,2024-01-24 14:12:58,0.0
-2991,-383,1725,979,-245,-1148,2024-01-24 14:12:58,0.0
-2993,-269,1058,787,-407,-634,2024-01-24 14:12:58,0.0
-3420,376,933,502,9,-641,2024-01-24 14:12:58,0.0
-3597,260,780,277,97,-389,2024-01-24 14:12:58,0.0
-4969,21,1277,265,-181,-142,2024-01-24 14:12:58,0.0
-3665,889,2400,1035,97,266,2024-01-24 14:12:58,0.0
-2776,716,3756,503,-578,-813,2024-01-24 14:12:58,0.0
-3199,529,2176,813,143,-467,2024-01-24 14:12:58,0.0
-3582,-198,3012,1308,-574,-607,2024-01-24 14:12:58,0.0
-2769,-924,1626,962,489,-185,2024-01-24 14:12:58,0.0
-2878,237,1195,253,202,160,2024-01-24 14:12:59,0.0
-2883,895,998,321,-2,142,2024-01-24 14:12:59,0.0
-2970,183,1086,97,246,43,2024-01-24 14:12:59,0.0
-3428,82,1341,-262,455,31,2024-01-24 14:12:59,0.0
-5144,507,1508,7,492,3,2024-01-24 14:12:59,0.0
-4729,392,2660,67,502,214,2024-01-24 14:12:59,0.0
-3355,1124,2803,6,-535,161,2024-01-24 14:12:59,0.0
-3020,-592,2084,-734,-33,428,2024-01-24 14:12:59,0.0
-4134,1500,2536,-416,308,272,2024-01-24 14:12:59,0.0
-2283,596,986,-51,34,-370,2024-01-24 14:12:59,0.0
-3044,-416,885,-36,11,-188,2024-01-24 14:12:59,0.0
-3259,-79,1042,-201,82,-239,2024-01-24 14:12:59,0.0
-3053,79,924,-121,420,-339,2024-01-24 14:12:59,0.0
-3374,21,730,-2,244,-113,2024-01-24 14:12:59,0.0
-4293,-52,703,-146,140,-101,2024-01-24 14:12:59,0.0
-5126,-45,2049,-18,-197,20,2024-01-24 14:12:59,0.0
-3502,161,2578,-287,-699,-420,2024-01-24 14:12:59,0.0
-3096,850,2068,415,-548,-464,2024-01-24 14:12:59,0.0
-4216,-329,2680,788,-285,-428,2024-01-24 14:13:00,0.0
-3107,-784,1739,505,-18,7,2024-01-24 14:13:00,0.0
-2930,4,1526,188,289,272,2024-01-24 14:13:00,0.0
-3050,564,1223,287,38,217,2024-01-24 14:13:00,0.0
-2836,122,952,210,14,120,2024-01-24 14:13:00,0.0
-3818,702,1128,163,501,-38,2024-01-24 14:13:00,0.0
-3720,422,657,495,401,-176,2024-01-24 14:13:00,0.0
-4563,-114,433,336,458,37,2024-01-24 14:13:00,0.0
-4837,542,2415,74,222,284,2024-01-24 14:13:00,0.0
-3059,1031,2970,219,-583,363,2024-01-24 14:13:00,0.0
-3422,-199,2295,-128,-185,232,2024-01-24 14:13:00,0.0
-3820,852,2037,197,140,-87,2024-01-24 14:13:00,0.0
-2778,1268,1718,1091,-179,-493,2024-01-24 14:13:00,0.0
-3208,193,1539,1518,-184,-758,2024-01-24 14:13:00,0.0
-3118,478,1334,1663,-397,-791,2024-01-24 14:13:00,0.0
-2948,494,1820,2164,-331,-787,2024-01-24 14:13:00,0.0
-3520,62,2236,2204,-322,-736,2024-01-24 14:13:00,0.0
-3015,407,1396,2077,-324,-790,2024-01-24 14:13:01,0.0
-3868,695,2454,2450,-493,-651,2024-01-24 14:13:01,0.0
-3409,730,2375,1933,-1212,-1135,2024-01-24 14:13:01,0.0
-2976,705,1658,2017,-368,-554,2024-01-24 14:13:01,0.0
-4375,1564,2418,2060,-708,-784,2024-01-24 14:13:01,0.0
-2885,542,1445,1921,-379,-709,2024-01-24 14:13:01,0.0
-3252,1471,1596,1688,-453,-642,2024-01-24 14:13:01,0.0
-3310,881,1780,1631,-312,-775,2024-01-24 14:13:01,0.0
-3346,1306,1225,1337,-121,-716,2024-01-24 14:13:01,0.0
-3554,1223,1804,1173,-32,-564,2024-01-24 14:13:01,0.0
-4245,1903,1366,993,211,-388,2024-01-24 14:13:01,0.0
-3633,1980,2432,1048,-5,-339,2024-01-24 14:13:01,0.0
-3093,428,2262,1413,-374,-466,2024-01-24 14:13:01,0.0
-2869,-295,2356,934,-446,-532,2024-01-24 14:13:01,0.0
-3922,537,2357,974,-244,-702,2024-01-24 14:13:01,0.0
-3428,-51,1621,626,-277,-680,2024-01-24 14:13:01,0.0
-3189,109,1545,398,22,-566,2024-01-24 14:13:01,0.0
-3119,784,1382,264,-169,-582,2024-01-24 14:13:01,0.0
-2702,145,1188,521,-128,-550,2024-01-24 14:13:02,0.0
-3063,51,1640,639,248,-422,2024-01-24 14:13:02,0.0
-3694,-283,1484,242,-190,-395,2024-01-24 14:13:02,0.0
-4805,510,917,314,5,-23,2024-01-24 14:13:02,0.0
-4878,160,3227,272,-379,-156,2024-01-24 14:13:02,0.0
-2449,258,2348,139,-439,-109,2024-01-24 14:13:02,0.0
-3092,1715,3035,866,-227,-694,2024-01-24 14:13:02,0.0
-3390,-451,2711,861,-308,-490,2024-01-24 14:13:02,0.0
-2688,185,1655,679,-211,-356,2024-01-24 14:13:02,0.0
-2557,-195,1471,469,196,-77,2024-01-24 14:13:02,0.0
-3098,469,1153,197,-58,69,2024-01-24 14:13:02,0.0
-2858,506,1286,184,188,52,2024-01-24 14:13:02,0.0
-3497,368,1630,-101,211,111,2024-01-24 14:13:02,0.0
-4442,553,1564,-24,470,-86,2024-01-24 14:13:02,0.0
-5153,288,3615,202,26,211,2024-01-24 14:13:02,0.0
-3283,668,2557,71,-2,72,2024-01-24 14:13:02,0.0
-2662,-660,2574,-794,91,580,2024-01-24 14:13:02,0.0
-3777,1024,2632,-749,118,439,2024-01-24 14:13:03,0.0
-2611,265,1521,-430,-201,68,2024-01-24 14:13:03,0.0
-2698,91,1599,-366,-67,130,2024-01-24 14:13:03,0.0
-2871,-20,931,-397,-119,-87,2024-01-24 14:13:03,0.0
-2757,122,1214,-118,254,-48,2024-01-24 14:13:03,0.0
-3326,149,1933,273,285,39,2024-01-24 14:13:03,0.0
-5346,111,1489,-75,473,-144,2024-01-24 14:13:03,0.0
-4551,772,3600,80,117,-140,2024-01-24 14:13:03,0.0
-3123,710,2196,-69,-44,-478,2024-01-24 14:13:03,0.0
-3300,1216,2835,760,-325,-499,2024-01-24 14:13:03,0.0
-3094,-216,2599,899,-120,-416,2024-01-24 14:13:03,0.0
-2569,74,1565,711,-53,-352,2024-01-24 14:13:03,0.0
-2805,-75,1466,624,169,-210,2024-01-24 14:13:03,0.0
-3133,524,1219,257,136,-123,2024-01-24 14:13:03,0.0
-3273,158,1368,200,398,-94,2024-01-24 14:13:03,0.0
-3520,496,879,-109,460,-35,2024-01-24 14:13:03,0.0
-3821,933,1551,149,452,-234,2024-01-24 14:13:03,0.0
-5233,623,854,158,567,-23,2024-01-24 14:13:03,
-4334,1595,3728,920,-707,77,2024-01-24 14:13:06,0.0
-3539,-635,1636,604,-218,-222,2024-01-24 14:13:06,0.0
-3263,449,2568,479,-1,-3,2024-01-24 14:13:06,0.0
-3437,1186,2067,1118,-241,-508,2024-01-24 14:13:06,0.0
-2805,363,1551,1559,-214,-675,2024-01-24 14:13:06,0.0
-3095,669,1910,1753,-390,-1006,2024-01-24 14:13:06,0.0
-2951,433,1968,2064,-272,-1028,2024-01-24 14:13:06,0.0
-3278,328,2209,2050,-588,-689,2024-01-24 14:13:06,0.0
-2954,1323,1770,1807,-242,-609,2024-01-24 14:13:06,0.0
-3210,621,2514,138,-117,152,2024-01-24 14:13:06,0.0
-3186,-605,2437,-605,-153,399,2024-01-24 14:13:06,0.0
-3805,1341,2427,-613,14,366,2024-01-24 14:13:06,0.0
-2774,647,1755,-97,-243,-252,2024-01-24 14:13:06,0.0
-2852,390,1380,161,-150,-207,2024-01-24 14:13:06,0.0
-2789,-212,1012,39,-335,-319,2024-01-24 14:13:06,0.0
-2980,-67,1217,228,-18,-159,2024-01-24 14:13:06,0.0
-3374,-304,1327,297,220,6,2024-01-24 14:13:06,0.0
-4465,-31,1555,-270,381,35,2024-01-24 14:13:06,0.0
-4664,971,565,-112,462,54,2024-01-24 14:13:06,0.0
-4507,144,3253,146,-82,-384,2024-01-24 14:13:07,0.0
-2549,-45,2186,-306,-57,-299,2024-01-24 14:13:07,0.0
-3620,1460,2545,521,-502,-414,2024-01-24 14:13:07,0.0
-3722,-435,2381,691,-372,-238,2024-01-24 14:13:07,0.0
-2731,-268,1435,309,-127,29,2024-01-24 14:13:07,0.0
-3164,505,1408,69,1,184,2024-01-24 14:13:07,0.0
-3074,628,1098,78,-210,185,2024-01-24 14:13:07,0.0
-3037,234,1454,-198,-3,105,2024-01-24 14:13:07,0.0
-3259,498,1279,-137,423,30,2024-01-24 14:13:07,0.0
-3885,982,1281,192,189,-97,2024-01-24 14:13:07,0.0
-4742,306,502,205,430,-111,2024-01-24 14:13:07,0.0
-5140,476,1895,266,580,143,2024-01-24 14:13:07,0.0
-2813,983,2426,287,-24,161,2024-01-24 14:13:07,0.0
-3428,-353,2399,33,-92,289,2024-01-24 14:13:07,0.0
-3982,711,2287,-141,23,97,2024-01-24 14:13:07,0.0
-2738,1045,1558,488,-144,-231,2024-01-24 14:13:07,0.0
-3249,569,1530,924,-141,-398,2024-01-24 14:13:07,0.0
-3069,147,1556,1080,-150,-601,2024-01-24 14:13:07,0.0
-3374,298,1516,1435,-302,-560,2024-01-24 14:13:08,0.0
-3175,526,1245,1603,-19,-644,2024-01-24 14:13:08,0.0
-3698,407,1446,1758,4,-636,2024-01-24 14:13:08,0.0
-3642,-96,1213,1979,-1,-747,2024-01-24 14:13:08,0.0
-3635,1223,2380,2017,-252,-735,2024-01-24 14:13:08,0.0
-3648,922,2168,1607,-1018,-1069,2024-01-24 14:13:08,0.0
-2921,750,1895,2031,-603,-608,2024-01-24 14:13:08,0.0
-3938,858,2357,2161,-732,-781,2024-01-24 14:13:08,0.0
-3367,638,1787,2057,-717,-674,2024-01-24 14:13:08,0.0
-3005,1301,1827,2106,-630,-747,2024-01-24 14:13:08,0.0
-3446,545,1876,1955,-506,-822,2024-01-24 14:13:08,0.0
-3329,779,1714,1524,-250,-700,2024-01-24 14:13:08,0.0
-3440,945,1594,1300,-180,-599,2024-01-24 14:13:08,0.0
-3376,1508,1676,1291,116,-527,2024-01-24 14:13:08,0.0
-3610,1712,1686,1252,192,-591,2024-01-24 14:13:08,0.0
-3764,1237,2783,1588,88,-629,2024-01-24 14:13:08,0.0
-2596,439,2042,1719,-123,-775,2024-01-24 14:13:08,0.0
-3694,179,1929,1719,-199,-765,2024-01-24 14:13:09,0.0
-3273,833,2095,1934,-403,-902,2024-01-24 14:13:09,0.0
-3936,-986,1938,1211,-291,-752,2024-01-24 14:13:09,0.0
-3578,152,1695,442,-184,-535,2024-01-24 14:13:09,0.0
-3422,493,1264,351,-362,-564,2024-01-24 14:13:09,0.0
-2807,80,1158,398,22,-531,2024-01-24 14:13:09,0.0
-3328,381,1300,414,264,-360,2024-01-24 14:13:09,0.0
-3591,301,1313,699,300,-227,2024-01-24 14:13:09,0.0
-4514,-149,822,457,303,-296,2024-01-24 14:13:09,0.0
-4924,710,1731,721,396,-131,2024-01-24 14:13:09,0.0
-2961,387,2521,661,-186,-491,2024-01-24 14:13:09,0.0
-3099,912,2314,815,-495,-399,2024-01-24 14:13:09,0.0
-4021,111,2263,887,-487,-233,2024-01-24 14:13:09,0.0
-2900,-22,1141,644,148,-68,2024-01-24 14:13:09,0.0
-3154,210,1245,284,-94,-17,2024-01-24 14:13:09,0.0
-3451,616,1047,36,-289,357,2024-01-24 14:13:09,0.0
-2896,140,1161,-172,-416,233,2024-01-24 14:13:09,0.0
-3173,297,1236,-409,204,188,2024-01-24 14:13:09,0.0
-3885,1428,1317,-43,445,9,2024-01-24 14:13:10,0.0
-4564,792,1046,334,437,20,2024-01-24 14:13:10,0.0
-4856,240,1892,171,418,81,2024-01-24 14:13:10,0.0
-3935,812,2513,314,14,279,2024-01-24 14:13:14,0.0
-3138,-878,2057,-428,-54,390,2024-01-24 14:13:14,0.0
-3936,746,2064,-728,163,358,2024-01-24 14:13:14,0.0
-2974,959,1117,-494,-221,-24,2024-01-24 14:13:14,0.0
-2713,399,1105,-261,-154,-39,2024-01-24 14:13:14,0.0
-3293,87,1172,-278,-12,-152,2024-01-24 14:13:14,0.0
-3026,-29,765,-199,400,-111,2024-01-24 14:13:14,0.0
-4380,624,672,-703,409,290,2024-01-24 14:13:14,0.0
-4366,-172,2250,-734,376,320,2024-01-24 14:13:14,0.0
-4930,994,1145,232,621,72,2024-01-24 14:13:14,0.0
-3456,331,2796,384,-144,-546,2024-01-24 14:13:14,0.0
-3194,1215,2355,894,-598,-352,2024-01-24 14:13:14,0.0
-3832,13,2398,1327,-691,-486,2024-01-24 14:13:14,0.0
-2795,-380,1585,1076,-251,-262,2024-01-24 14:13:14,0.0
-2903,-99,1363,551,-304,26,2024-01-24 14:13:14,0.0
-3073,553,1263,517,9,-48,2024-01-24 14:13:14,0.0
-3045,317,1317,321,36,-6,2024-01-24 14:13:14,0.0
-3516,384,1272,-94,427,-94,2024-01-24 14:13:14,0.0
-3919,1091,1077,148,128,-167,2024-01-24 14:13:14,0.0
-4637,276,601,457,229,-74,2024-01-24 14:13:14,0.0
-4997,592,2846,464,142,78,2024-01-24 14:13:14,0.0
-2519,558,2689,107,-82,145,2024-01-24 14:13:15,0.0
-3200,-349,2227,-215,-91,365,2024-01-24 14:13:15,0.0
-4184,1255,2411,53,120,223,2024-01-24 14:13:15,0.0
-2547,742,1608,757,-130,-327,2024-01-24 14:13:15,
-3389,336,1411,981,-132,-382,2024-01-24 14:13:15,0.0
-3067,244,1463,1045,-237,-613,2024-01-24 14:13:15,0.0
-3176,203,1308,1465,-144,-511,2024-01-24 14:13:15,0.0
-3441,51,898,1446,3,-433,2024-01-24 14:13:15,0.0
-3289,933,1098,1508,4,-427,2024-01-24 14:13:15,0.0
-4294,-341,1177,1581,103,-647,2024-01-24 14:13:15,0.0
-4558,624,1354,1842,449,-757,2024-01-24 14:13:15,0.0
-4236,1259,1938,1316,-668,-1032,2024-01-24 14:13:15,0.0
-2687,1023,2016,1936,-93,-525,2024-01-24 14:13:15,0.0
-3419,1632,2330,2674,-624,-950,2024-01-24 14:13:15,0.0
-2956,396,2121,2684,-577,-939,2024-01-24 14:13:15,0.0
-3225,855,2239,2532,-646,-756,2024-01-24 14:13:15,0.0
-3156,1377,2230,2505,-538,-940,2024-01-24 14:13:15,0.0
-2997,965,1821,2569,-317,-909,2024-01-24 14:13:15,0.0
-3185,532,2005,2152,-268,-956,2024-01-24 14:13:16,0.0
-3389,956,1873,1999,-251,-868,2024-01-24 14:13:16,0.0
-3441,966,1747,1926,-177,-709,2024-01-24 14:13:16,0.0
-3428,1064,1660,1826,14,-758,2024-01-24 14:13:16,0.0
-3494,452,1583,1698,41,-783,2024-01-24 14:13:16,0.0
-3359,230,2171,1410,-436,-573,2024-01-24 14:13:16,0.0
-3152,-994,1357,608,-113,-384,2024-01-24 14:13:16,0.0
-4658,692,1447,702,-210,-367,2024-01-24 14:13:16,0.0
-3281,351,1143,609,-487,-525,2024-01-24 14:13:16,0.0
-3426,-15,1707,148,-254,-531,2024-01-24 14:13:16,0.0
-3295,226,944,264,-100,-555,2024-01-24 14:13:16,0.0
-3999,-407,979,276,361,-574,2024-01-24 14:13:16,0.0
-3563,105,784,137,168,-259,2024-01-24 14:13:16,0.0
-4650,236,1340,273,133,-71,2024-01-24 14:13:16,0.0
-4386,198,936,671,552,5,2024-01-24 14:13:16,0.0
-4072,150,2886,333,-228,-190,2024-01-24 14:13:16,0.0
-2515,90,2007,660,3,-230,2024-01-24 14:13:16,0.0
-3872,629,2817,1111,-145,-426,2024-01-24 14:13:17,0.0
-3087,-683,1371,940,-78,-42,2024-01-24 14:13:17,0.0
-2790,38,1140,497,-51,26,2024-01-24 14:13:17,0.0
-3548,188,1441,299,253,179,2024-01-24 14:13:17,0.0
-2693,239,815,-37,145,290,2024-01-24 14:13:17,0.0
-3533,524,689,-203,60,171,2024-01-24 14:13:17,0.0
-3662,604,1352,-126,68,6,2024-01-24 14:13:17,0.0
-4828,750,1006,-65,387,-12,2024-01-24 14:13:17,0.0
-5116,-260,2561,-106,121,139,2024-01-24 14:13:17,0.0
-3320,608,2425,-139,-97,471,2024-01-24 14:13:17,0.0
-3439,-911,2156,-1075,51,496,2024-01-24 14:13:17,0.0
-4035,1213,2024,-951,-50,361,2024-01-24 14:13:17,0.0
-2545,652,1169,-525,-324,-51,2024-01-24 14:13:17,0.0
-2699,73,884,-323,-459,-67,2024-01-24 14:13:17,0.0
-3502,-375,1321,-583,-402,-144,2024-01-24 14:13:17,0.0
-3003,-237,989,-304,188,-104,2024-01-24 14:13:17,0.0
-3424,29,900,15,476,68,2024-01-24 14:13:17,0.0
-4915,113,1110,-305,152,-46,2024-01-24 14:13:17,0.0
-4878,967,1198,16,439,55,2024-01-24 14:13:18,0.0
-3937,135,3411,-209,-211,-446,2024-01-24 14:13:18,0.0
-2088,825,1687,293,-189,-173,2024-01-24 14:13:18,0.0
-3832,1004,2659,1225,-535,-719,2024-01-24 14:13:18,0.0
-3529,-1130,2344,721,-27,-256,2024-01-24 14:13:18,0.0
-2729,408,1071,628,-143,-120,2024-01-24 14:13:18,0.0
-3244,268,1332,580,23,-166,2024-01-24 14:13:18,0.0
-3067,170,980,273,35,62,2024-01-24 14:13:18,0.0
-3370,224,1396,8,166,26,2024-01-24 14:13:23,0.0
-3836,547,983,-27,430,-56,2024-01-24 14:13:23,0.0
-4104,518,770,60,167,-76,2024-01-24 14:13:24,0.0
-4868,-40,1295,-49,555,163,2024-01-24 14:13:24,0.0
-4264,1197,3142,458,-77,341,2024-01-24 14:13:24,0.0
-2608,-440,2206,175,-222,204,2024-01-24 14:13:24,0.0
-3819,286,1940,-369,-198,420,2024-01-24 14:13:24,0.0
-3411,1473,1986,372,48,21,2024-01-24 14:13:24,0.0
-2863,-48,1683,979,-251,-346,2024-01-24 14:13:24,0.0
-3159,-383,1923,1340,-207,-1024,2024-01-24 14:13:24,0.0
-3328,-1,1681,1237,122,-733,2024-01-24 14:13:24,0.0
-3378,639,1997,1522,220,-484,2024-01-24 14:13:24,0.0
-3392,-264,1773,1726,173,-351,2024-01-24 14:13:24,0.0
-3637,345,2003,2166,345,-372,2024-01-24 14:13:24,0.0
-2980,845,2223,1804,-402,-648,2024-01-24 14:13:24,0.0
-3405,272,1712,1505,-460,-338,2024-01-24 14:13:24,0.0
-4089,1162,2320,1547,-275,-486,2024-01-24 14:13:24,0.0
-2997,59,1334,1367,-126,-355,2024-01-24 14:13:24,0.0
-3650,596,1299,549,-80,-61,2024-01-24 14:13:24,0.0
-3138,1039,1005,345,-63,160,2024-01-24 14:13:24,0.0
-3357,892,1241,85,127,259,2024-01-24 14:13:24,0.0
-3911,1218,1113,145,289,249,2024-01-24 14:13:24,0.0
-4080,1170,1069,-29,342,120,2024-01-24 14:13:24,0.0
-4289,1486,3372,270,41,147,2024-01-24 14:13:24,0.0
-3036,42,2249,77,-285,-106,2024-01-24 14:13:25,0.0
-3379,-373,2535,-545,329,59,2024-01-24 14:13:25,0.0
-3613,1354,2220,-651,-127,-198,2024-01-24 14:13:25,0.0
-2615,156,1440,-419,-285,-68,2024-01-24 14:13:25,0.0
-2931,407,1416,-533,-393,-122,2024-01-24 14:13:25,0.0
-2941,325,1287,-363,-17,-288,2024-01-24 14:13:25,0.0
-3304,-9,1361,-124,-80,-196,2024-01-24 14:13:25,0.0
-3367,-272,1101,-182,379,-275,2024-01-24 14:13:25,0.0
-4391,374,1356,-253,276,-15,2024-01-24 14:13:25,0.0
-4769,268,1339,-103,411,77,2024-01-24 14:13:25,0.0
-3808,109,3604,-408,-193,-139,2024-01-24 14:13:25,0.0
-2663,284,2285,-375,22,-98,2024-01-24 14:13:25,0.0
-3644,1380,2483,426,-227,-289,2024-01-24 14:13:25,0.0
-3078,-460,2033,544,77,-93,2024-01-24 14:13:25,0.0
-2643,-152,1366,135,105,90,2024-01-24 14:13:25,0.0
-2902,198,1188,-79,133,259,2024-01-24 14:13:25,0.0
-2911,960,1007,93,117,102,2024-01-24 14:13:25,0.0
-3482,158,1266,63,276,0,2024-01-24 14:13:25,0.0
-3942,715,1108,80,225,-168,2024-01-24 14:13:26,
-4686,478,469,118,484,-85,2024-01-24 14:13:26,0.0
-5267,491,3141,274,-105,117,2024-01-24 14:13:26,0.0
-2608,662,2448,355,-83,1,2024-01-24 14:13:26,0.0
-3590,-1265,2409,-697,-90,326,2024-01-24 14:13:26,0.0
-4022,1425,2081,-503,64,244,2024-01-24 14:13:26,0.0
-2607,331,1593,-11,-317,-156,2024-01-24 14:13:26,0.0
-3072,130,1231,184,-170,-122,2024-01-24 14:13:27,0.0
-3051,171,1004,118,-212,-341,2024-01-24 14:13:27,0.0
-3115,179,1379,526,180,-347,2024-01-24 14:13:27,0.0
-3283,21,430,632,664,-284,2024-01-24 14:13:27,0.0
-3825,-293,508,61,17,-218,2024-01-24 14:13:27,0.0
-4529,234,1076,76,-46,-158,2024-01-24 14:13:27,0.0
-4887,335,3138,-2,-343,-298,2024-01-24 14:13:27,0.0
-3029,788,1779,286,53,-329,2024-01-24 14:13:27,0.0
-3765,1104,2421,1124,-793,-483,2024-01-24 14:13:27,0.0
-3051,912,2479,740,-355,-160,2024-01-24 14:13:27,0.0
-3735,-355,2238,352,-300,-115,2024-01-24 14:13:27,0.0
-3563,969,2064,622,-110,-54,2024-01-24 14:13:27,0.0
-3099,953,1910,1320,-296,-553,2024-01-24 14:13:27,0.0
-3458,745,1676,1811,-380,-789,2024-01-24 14:13:27,0.0
-3076,437,1969,1987,-304,-1106,2024-01-24 14:13:27,0.0
-2796,-41,1893,2169,-546,-1020,2024-01-24 14:13:27,0.0
-3304,-198,1466,1929,-128,-828,2024-01-24 14:13:27,0.0
-3291,175,1869,1728,-145,-585,2024-01-24 14:13:27,0.0
-3004,643,1651,1957,-288,-636,2024-01-24 14:13:27,0.0
-3839,1455,2910,2454,-70,-868,2024-01-24 14:13:27,0.0
-3692,-6,2491,1922,-887,-1116,2024-01-24 14:13:28,0.0
-2894,878,1933,2312,-776,-832,2024-01-24 14:13:28,0.0
-3773,762,2722,2258,-678,-955,2024-01-24 14:13:28,0.0
-2868,538,1830,2134,-416,-926,2024-01-24 14:13:28,0.0
-3465,1393,2042,1940,-242,-868,2024-01-24 14:13:28,0.0
-3222,921,1822,1674,-234,-846,2024-01-24 14:13:28,0.0
-3370,519,1662,1095,53,-598,2024-01-24 14:13:28,0.0
-3218,1266,1239,871,366,-524,2024-01-24 14:13:28,0.0
-3719,1244,1256,820,380,-627,2024-01-24 14:13:28,0.0
-3737,1306,1534,864,130,-540,2024-01-24 14:13:28,0.0
-3503,956,3437,1583,-616,-473,2024-01-24 14:13:28,0.0
-3320,42,2566,1047,-420,-594,2024-01-24 14:13:28,0.0
-3269,637,2560,711,-291,-497,2024-01-24 14:13:28,0.0
-3036,355,2329,763,-614,-783,2024-01-24 14:13:28,0.0
-2824,-164,1624,338,-487,-531,2024-01-24 14:13:28,0.0
-2992,92,1550,96,-369,-508,2024-01-24 14:13:28,0.0
-2872,118,1700,329,-63,-382,2024-01-24 14:13:28,0.0
-3312,-267,1290,135,422,-175,2024-01-24 14:13:28,0.0
-3925,-42,1640,-123,290,-49,2024-01-24 14:13:29,0.0
-4734,666,1796,-23,601,-96,2024-01-24 14:13:29,0.0
-4618,344,3405,81,-191,-164,2024-01-24 14:13:29,0.0
-2544,340,2665,173,255,-314,2024-01-24 14:13:29,0.0
-3164,1225,2671,966,-444,-413,2024-01-24 14:13:29,0.0
-3173,-564,2418,859,-177,-339,2024-01-24 14:13:29,0.0
-2338,-289,1577,421,71,-67,2024-01-24 14:13:29,0.0
-3163,744,1467,312,59,66,2024-01-24 14:13:29,0.0
-2905,469,1177,378,-25,48,2024-01-24 14:13:29,0.0
-3524,-115,1555,-95,308,54,2024-01-24 14:13:29,0.0
-3471,537,1378,-560,339,32,2024-01-24 14:13:29,0.0
-4859,770,1084,80,486,26,2024-01-24 14:13:29,0.0
-4909,-304,2712,153,447,173,2024-01-24 14:13:29,0.0
-3126,922,2842,84,100,156,2024-01-24 14:13:29,0.0
-3125,-958,2243,-608,-182,441,2024-01-24 14:13:29,0.0
-3559,857,2208,-707,-143,399,2024-01-24 14:13:29,0.0
-2834,518,1482,-274,-349,57,2024-01-24 14:13:29,0.0
-2878,315,1514,-101,-325,-3,2024-01-24 14:13:30,0.0
-2956,-33,1244,-91,-334,-207,2024-01-24 14:13:30,0.0
-3276,-81,1216,-26,21,-124,2024-01-24 14:13:30,0.0
-3273,62,1211,176,330,-44,2024-01-24 14:13:30,0.0
-4140,-187,1614,-225,121,-91,2024-01-24 14:13:30,0.0
-4905,328,997,-267,504,-146,2024-01-24 14:13:30,0.0
-4518,-53,3246,-345,-13,-313,2024-01-24 14:13:30,0.0
-2225,128,2170,25,190,-141,2024-01-24 14:13:30,0.0
-3617,1078,2447,480,-225,-473,2024-01-24 14:13:30,0.0
-3543,-421,2187,679,45,-120,2024-01-24 14:13:30,0.0
-2952,-244,1457,362,113,-18,2024-01-24 14:13:30,0.0
-3262,51,1389,70,113,203,2024-01-24 14:13:30,0.0
-2950,470,1030,8,82,312,2024-01-24 14:13:30,0.0
-3225,389,1187,-44,49,86,2024-01-24 14:13:30,0.0
-3371,582,727,78,574,-60,2024-01-24 14:13:30,0.0
-3681,260,882,66,134,-162,2024-01-24 14:13:30,0.0
-4603,70,349,143,405,-89,2024-01-24 14:13:30,0.0
-5704,1166,2627,609,28,182,2024-01-24 14:13:31,0.0
-2670,888,2434,674,-413,-103,2024-01-24 14:13:31,0.0
-3395,-693,1985,54,-400,-22,2024-01-24 14:13:31,0.0
-4628,1555,2570,794,151,-64,2024-01-24 14:13:31,0.0
-2572,111,1249,1013,-379,-486,2024-01-24 14:13:31,0.0
-3249,525,1636,1387,-408,-457,2024-01-24 14:13:31,0.0
-3224,1013,2040,1720,-362,-844,2024-01-24 14:13:31,0.0
-3045,50,1772,2064,-525,-870,2024-01-24 14:13:31,0.0
-3337,344,1651,2023,-242,-889,2024-01-24 14:13:31,0.0
-3334,-125,1950,2033,-149,-702,2024-01-24 14:13:31,0.0
-3515,389,1661,2229,-266,-829,2024-01-24 14:13:31,0.0
-3129,661,2070,2227,-535,-923,2024-01-24 14:13:31,0.0
-3533,971,2782,2046,-671,-901,2024-01-24 14:13:31,0.0
-3526,723,2378,1716,-630,-581,2024-01-24 14:13:31,0.0
-3458,1293,1762,2235,-569,-727,2024-01-24 14:13:31,0.0
-2988,788,1766,2122,-516,-783,2024-01-24 14:13:31,0.0
-3337,952,1802,1734,-372,-733,2024-01-24 14:13:31,0.0
-3420,1031,1720,1550,-188,-738,2024-01-24 14:13:31,0.0
-3667,1470,1701,1381,-10,-570,2024-01-24 14:13:32,0.0
-3861,1624,1675,1239,186,-456,2024-01-24 14:13:32,0.0
-3201,1435,831,1183,355,-397,2024-01-24 14:13:32,0.0
-3138,1207,1622,964,214,-447,2024-01-24 14:13:32,
-3389,502,3420,1309,-583,-521,2024-01-24 14:13:32,0.0
-3267,-478,1858,972,36,-585,2024-01-24 14:13:32,0.0
-4599,916,2284,850,-72,-613,2024-01-24 14:13:32,0.0
-2800,311,1351,849,-202,-695,2024-01-24 14:13:32,0.0
-2999,-33,1434,534,-194,-560,2024-01-24 14:13:32,0.0
-3311,389,1349,220,-343,-543,2024-01-24 14:13:32,0.0
-3012,164,1083,369,-106,-563,2024-01-24 14:13:32,0.0
-3619,121,1037,325,249,-369,2024-01-24 14:13:32,0.0
-3700,-100,744,104,373,-260,2024-01-24 14:13:32,0.0
-4729,-281,753,-112,151,-105,2024-01-24 14:13:32,0.0
-4894,250,1811,350,258,238,2024-01-24 14:13:32,0.0
-3361,899,3402,267,-156,-262,2024-01-24 14:13:32,0.0
-3073,875,2401,634,-256,-393,2024-01-24 14:13:32,0.0
-3233,76,2243,1070,-399,-477,2024-01-24 14:13:33,0.0
-2889,-833,1807,530,-161,-87,2024-01-24 14:13:33,0.0
-2943,13,1488,42,-110,227,2024-01-24 14:13:33,0.0
-3265,326,1189,-157,-336,235,2024-01-24 14:13:33,0.0
-2799,521,1086,-113,-67,213,2024-01-24 14:13:33,0.0
-3648,641,1403,-45,192,127,2024-01-24 14:13:33,0.0
-4177,554,1402,189,109,-38,2024-01-24 14:13:33,0.0
-4523,67,578,-113,515,-161,2024-01-24 14:13:33,0.0
-4985,395,3590,-42,617,260,2024-01-24 14:13:33,0.0
-2801,44,2708,-202,-51,188,2024-01-24 14:13:33,0.0
-3502,-257,2505,-783,-67,429,2024-01-24 14:13:33,0.0
-3306,944,1921,-584,185,232,2024-01-24 14:13:33,0.0
-2547,613,1515,-183,-149,-58,2024-01-24 14:13:33,0.0
-3028,385,1420,88,-244,-162,2024-01-24 14:13:33,0.0
-3040,-155,1241,169,-79,-285,2024-01-24 14:13:33,0.0
-3220,-233,1218,334,141,-321,2024-01-24 14:13:33,0.0
-3208,-116,762,189,376,-313,2024-01-24 14:13:33,0.0
-4297,81,1033,-137,73,-259,2024-01-24 14:13:33,0.0
-4486,263,809,35,334,-104,2024-01-24 14:13:34,0.0
-4906,199,3207,205,1,-342,2024-01-24 14:13:34,0.0
-2536,-437,2533,-225,-118,-46,2024-01-24 14:13:34,0.0
-3654,1216,2409,264,-92,-265,2024-01-24 14:13:34,0.0
-3356,237,1750,734,-145,-202,2024-01-24 14:13:34,0.0
-2733,-638,1507,321,-153,-85,2024-01-24 14:13:34,0.0
-3372,374,1460,215,59,123,2024-01-24 14:13:36,0.0
-3386,945,1375,636,-187,-81,2024-01-24 14:13:36,0.0
-3009,61,1017,603,-34,-196,2024-01-24 14:13:36,0.0
-3343,-111,1142,303,332,-213,2024-01-24 14:13:36,0.0
-3721,730,879,345,327,-255,2024-01-24 14:13:36,0.0
-4565,637,752,396,343,-254,2024-01-24 14:13:36,0.0
-5263,197,1709,575,761,-7,2024-01-24 14:13:36,0.0
-3873,1083,2709,585,-133,-95,2024-01-24 14:13:36,0.0
-2730,-229,1737,323,-505,4,2024-01-24 14:13:36,0.0
-4269,188,1016,370,334,-114,2024-01-24 14:13:36,0.0
-4817,968,1610,600,236,11,2024-01-24 14:13:36,0.0
-3509,-127,2925,488,-414,-502,2024-01-24 14:13:36,0.0
-2631,1018,2244,663,-334,-384,2024-01-24 14:13:36,0.0
-3567,940,2561,1378,-592,-567,2024-01-24 14:13:36,0.0
-3263,-1054,2220,966,-56,-231,2024-01-24 14:13:36,0.0
-2915,570,1432,478,-134,0,2024-01-24 14:13:36,0.0
-3169,475,1480,454,-197,10,2024-01-24 14:13:36,0.0
-3022,189,1296,265,-67,168,2024-01-24 14:13:36,0.0
-3178,359,1361,-110,267,57,2024-01-24 14:13:37,0.0
-3519,905,1216,-87,259,-56,2024-01-24 14:13:37,0.0
-4491,435,1352,57,320,-111,2024-01-24 14:13:37,0.0
-5319,594,2285,26,373,85,2024-01-24 14:13:37,0.0
-3138,413,3207,203,-47,56,2024-01-24 14:13:37,0.0
-2955,-626,2395,-828,-236,517,2024-01-24 14:13:37,0.0
-3402,924,2294,-748,90,515,2024-01-24 14:13:37,0.0
-2938,969,1799,-277,-236,24,2024-01-24 14:13:37,0.0
-2694,127,1293,-155,-190,-35,2024-01-24 14:13:37,0.0
-3023,370,1324,-147,-275,-265,2024-01-24 14:13:37,0.0
-3079,12,1501,132,-33,-321,2024-01-24 14:13:37,0.0
-3485,-175,1456,302,464,-147,2024-01-24 14:13:37,0.0
-3912,20,1090,-257,178,-80,2024-01-24 14:13:37,0.0
-4635,717,1022,-171,399,-57,2024-01-24 14:13:37,0.0
-4891,302,3079,72,-185,-232,2024-01-24 14:13:37,0.0
-2475,-273,2658,-43,-1,-280,2024-01-24 14:13:37,0.0
-3386,1235,2379,475,-329,-354,2024-01-24 14:13:37,0.0
-3703,-142,2361,785,-179,-271,2024-01-24 14:13:38,0.0
-2579,-663,1633,284,-4,-3,2024-01-24 14:13:38,0.0
-3301,523,1419,74,82,268,2024-01-24 14:13:38,0.0
-3223,679,1165,152,-316,124,2024-01-24 14:13:38,0.0
-2713,-79,1137,-45,69,146,2024-01-24 14:13:38,0.0
-3550,696,1448,-109,516,1,2024-01-24 14:13:38,0.0
-3609,1057,911,236,63,-143,2024-01-24 14:13:38,0.0
-5031,-215,707,379,556,-171,2024-01-24 14:13:38,0.0
-4678,844,2375,342,97,173,2024-01-24 14:13:38,0.0
-2875,522,2901,456,-245,129,2024-01-24 14:13:38,0.0
-3237,-418,2175,-122,-254,188,2024-01-24 14:13:38,0.0
-3996,1285,2159,67,231,33,2024-01-24 14:13:38,0.0
-2862,925,1473,755,-333,-430,2024-01-24 14:13:38,0.0
-3139,302,1393,949,-340,-480,2024-01-24 14:13:38,0.0
-3126,170,1494,793,-409,-513,2024-01-24 14:13:38,0.0
-2875,480,1543,1095,-99,-508,2024-01-24 14:13:38,0.0
-3235,-334,1159,804,115,-484,2024-01-24 14:13:38,0.0
-3665,407,1099,545,308,-255,2024-01-24 14:13:38,0.0
-4421,191,1039,653,301,-276,2024-01-24 14:13:39,0.0
-5010,838,1682,751,520,-251,2024-01-24 14:13:39,0.0
-3413,152,2287,397,-142,-500,2024-01-24 14:13:39,0.0
-2957,1807,2361,1193,-688,-547,2024-01-24 14:13:39,0.0
-3717,326,2215,1688,-961,-644,2024-01-24 14:13:39,0.0
-3016,-454,1735,1330,-425,-382,2024-01-24 14:13:39,0.0
-3402,578,1550,993,-504,-174,2024-01-24 14:13:39,0.0
-3402,519,1490,990,-378,-195,2024-01-24 14:13:39,0.0
-3111,177,1288,660,-260,-13,2024-01-24 14:13:39,0.0
-3461,453,1227,185,186,-58,2024-01-24 14:13:39,
