acceleration_x,acceleration_y,acceleration_z,gyroscope_x,gyroscope_y,gyroscope_z,timestamp,label
2396,-1045,1102,-29,-360,405,2024-01-24 14:16:45,0.0
4058,-154,1345,98,543,-183,2024-01-24 14:16:45,0.0
3850,-615,1228,8,-272,88,2024-01-24 14:16:45,0.0
3776,-78,803,204,509,-179,2024-01-24 14:16:45,0.0
4815,-165,1284,520,-189,-179,2024-01-24 14:16:45,0.0
3990,-1160,1099,58,44,-12,2024-01-24 14:16:45,0.0
5383,178,1681,549,-672,250,2024-01-24 14:16:45,0.0
4312,-281,2776,-12,227,462,2024-01-24 14:16:45,0.0
4203,1137,627,-3,-328,261,2024-01-24 14:16:45,0.0
4154,-1365,1658,217,328,-63,2024-01-24 14:16:45,0.0
4030,880,1381,-282,-340,-60,2024-01-24 14:16:45,0.0
2781,399,675,197,-59,-232,2024-01-24 14:16:46,0.0
3856,-228,1176,-224,-46,12,2024-01-24 14:16:46,0.0
3611,209,320,-393,-176,36,2024-01-24 14:16:46,0.0
4743,-588,609,-543,112,112,2024-01-24 14:16:46,0.0
5369,749,793,-209,204,-34,2024-01-24 14:16:46,0.0
5579,159,1735,456,489,-187,2024-01-24 14:16:46,0.0
3671,10,2550,350,-713,-133,2024-01-24 14:16:46,0.0
3627,-698,1963,-578,144,-190,2024-01-24 14:16:46,0.0
4484,1373,1628,-52,-189,383,2024-01-24 14:16:46,0.0
2405,-1059,1045,-12,-614,438,2024-01-24 14:16:46,0.0
4018,-204,1027,115,549,-192,2024-01-24 14:16:46,0.0
3843,-485,1137,69,-220,94,2024-01-24 14:16:46,0.0
3701,-509,661,235,62,-150,2024-01-24 14:16:46,0.0
4675,-440,1178,285,197,-302,2024-01-24 14:16:46,0.0
4856,-796,836,-203,-96,0,2024-01-24 14:16:46,0.0
5051,-289,1462,66,-672,363,2024-01-24 14:16:46,0.0
4067,548,2434,-346,180,433,2024-01-24 14:16:47,0.0
4708,761,1047,5,-302,143,2024-01-24 14:16:47,0.0
3760,-1416,1248,-141,265,-245,2024-01-24 14:16:47,0.0
4095,1072,865,-275,-362,-132,2024-01-24 14:16:47,0.0
3200,-335,579,-59,77,-148,2024-01-24 14:16:47,0.0
3497,-36,817,-427,83,-97,2024-01-24 14:16:47,0.0
3396,342,263,-464,-97,-1,2024-01-24 14:16:47,0.0
4695,-612,986,-459,337,208,2024-01-24 14:16:47,0.0
6027,616,180,-8,-90,-84,2024-01-24 14:16:47,0.0
5405,-649,1039,311,384,-125,2024-01-24 14:16:47,0.0
4511,705,2729,515,-97,-204,2024-01-24 14:16:47,0.0
2515,-929,1540,-490,-473,118,2024-01-24 14:16:47,0.0
4661,963,1383,213,420,90,2024-01-24 14:16:47,0.0
3284,-564,1460,102,-612,614,2024-01-24 14:16:47,0.0
3427,-372,938,241,245,47,2024-01-24 14:16:47,0.0
3889,-594,1091,266,-109,101,2024-01-24 14:16:47,0.0
3692,-553,700,268,194,-160,2024-01-24 14:16:47,0.0
4096,-381,1030,425,289,-334,2024-01-24 14:16:47,0.0
4707,-301,1188,186,-411,-1,2024-01-24 14:16:47,0.0
6122,-226,1217,472,-562,443,2024-01-24 14:16:48,0.0
4121,-420,3077,-134,274,629,2024-01-24 14:16:48,0.0
4633,1088,766,-129,-533,205,2024-01-24 14:16:48,0.0
4052,-1764,1435,83,494,-330,2024-01-24 14:16:48,0.0
3525,1232,1047,-581,-287,-253,2024-01-24 14:16:48,0.0
2863,25,542,-214,-96,-349,2024-01-24 14:16:48,0.0
3747,-132,914,-732,128,-150,2024-01-24 14:16:48,0.0
3286,335,402,-667,-67,-87,2024-01-24 14:16:48,0.0
4949,-91,1099,-456,268,104,2024-01-24 14:16:48,0.0
6108,344,53,73,-440,-151,2024-01-24 14:16:48,0.0
5170,-686,1974,328,1445,-371,2024-01-24 14:16:48,0.0
3929,1169,2511,257,-653,-141,2024-01-24 14:16:48,0.0
3489,-882,1613,-480,-98,56,2024-01-24 14:16:48,0.0
4376,1207,1416,-20,-274,418,2024-01-24 14:16:48,0.0
2637,-1321,1283,-133,-666,570,2024-01-24 14:16:48,0.0
3505,-241,1070,-97,646,-252,2024-01-24 14:16:48,0.0
4172,-260,1270,26,-126,-101,2024-01-24 14:16:48,0.0
3686,-478,613,91,209,-248,2024-01-24 14:16:48,0.0
4833,-403,1165,195,284,-460,2024-01-24 14:16:49,0.0
4846,-970,401,-414,-521,192,2024-01-24 14:16:49,0.0
5487,48,3122,-51,342,189,2024-01-24 14:16:49,0.0
3862,1812,1957,-528,-491,712,2024-01-24 14:16:49,0.0
3945,-789,917,433,-157,-101,2024-01-24 14:16:49,0.0
4050,143,1444,-95,562,-97,2024-01-24 14:16:49,0.0
3089,423,570,-14,-438,-125,2024-01-24 14:16:49,0.0
3475,-274,870,-200,472,-215,2024-01-24 14:16:49,0.0
3620,163,391,-541,-259,-47,2024-01-24 14:16:49,0.0
4148,12,264,-478,178,129,2024-01-24 14:16:49,0.0
5577,-103,1388,-183,605,-50,2024-01-24 14:16:49,0.0
5524,25,1429,300,-114,-145,2024-01-24 14:16:49,0.0
4445,522,2961,704,-266,-373,2024-01-24 14:16:49,0.0
2683,-830,1646,-598,-571,-98,2024-01-24 14:16:49,0.0
4929,973,1693,-106,554,317,2024-01-24 14:16:49,0.0
2407,90,1296,217,-1163,737,2024-01-24 14:16:49,0.0
3278,-852,744,441,991,-89,2024-01-24 14:16:49,0.0
4296,-345,1389,373,-127,46,2024-01-24 14:16:50,0.0
3715,-831,398,248,-90,-131,2024-01-24 14:16:50,0.0
4820,-104,1255,387,216,-369,2024-01-24 14:16:50,0.0
6160,-1027,555,-306,-202,288,2024-01-24 14:16:50,0.0
4775,17,3460,-110,49,497,2024-01-24 14:16:50,0.0
4004,1691,1319,-341,-55,426,2024-01-24 14:16:50,0.0
3562,-795,848,447,-443,-84,2024-01-24 14:16:50,0.0
4046,-135,1389,-316,453,-160,2024-01-24 14:16:50,0.0
2968,557,502,-193,-366,-290,2024-01-24 14:16:50,0.0
3689,-144,753,-277,115,-140,2024-01-24 14:16:50,0.0
3418,2,12,-511,-327,-3,2024-01-24 14:16:50,0.0
4547,-731,193,-616,231,123,2024-01-24 14:16:50,0.0
6010,642,697,-257,289,-238,2024-01-24 14:16:50,0.0
6179,351,1984,614,794,-477,2024-01-24 14:16:50,0.0
3297,474,2274,279,-971,-29,2024-01-24 14:16:50,0.0
3740,-804,1778,-450,528,-141,2024-01-24 14:16:50,0.0
4315,1682,1359,419,-275,531,2024-01-24 14:16:50,0.0
2151,-966,1143,291,-514,541,2024-01-24 14:16:50,0.0
4246,-593,919,511,570,-291,2024-01-24 14:16:51,
3913,-596,824,86,-309,82,2024-01-24 14:16:51,0.0
3701,-618,622,165,330,-288,2024-01-24 14:16:51,0.0
4779,305,1100,347,219,-360,2024-01-24 14:16:51,0.0
6133,-647,747,-62,-544,313,2024-01-24 14:16:51,0.0
5218,-622,3215,-173,86,436,2024-01-24 14:16:51,0.0
3632,1691,1034,-521,-213,245,2024-01-24 14:16:51,0.0
3032,-880,733,141,-115,-95,2024-01-24 14:16:51,0.0
5028,413,2076,-519,480,-314,2024-01-24 14:16:51,0.0
2736,548,333,-377,-845,-173,2024-01-24 14:16:51,0.0
3809,-399,804,-538,80,-122,2024-01-24 14:16:51,0.0
3404,-132,-76,-845,-302,22,2024-01-24 14:16:51,0.0
4378,-220,138,-691,438,97,2024-01-24 14:16:51,0.0
6469,935,262,-145,537,-217,2024-01-24 14:16:51,0.0
5361,-485,2149,381,422,-54,2024-01-24 14:16:51,0.0
3382,1155,1781,106,-1099,94,2024-01-24 14:16:51,0.0
3017,-1218,1469,-219,875,-66,2024-01-24 14:16:51,0.0
4804,1209,1555,356,-254,370,2024-01-24 14:16:52,0.0
2429,-642,1151,340,-589,531,2024-01-24 14:16:52,0.0
3907,-409,983,650,594,-208,2024-01-24 14:16:52,0.0
4007,-673,853,444,-173,51,2024-01-24 14:16:52,0.0
3419,-724,559,483,236,-289,2024-01-24 14:16:52,0.0
5575,-19,1134,273,200,-268,2024-01-24 14:16:52,0.0
5420,-752,814,158,-249,333,2024-01-24 14:16:52,0.0
5156,-310,3615,-51,35,479,2024-01-24 14:16:52,0.0
3604,1953,624,-288,-658,532,2024-01-24 14:16:52,0.0
3573,-1377,1277,585,441,-255,2024-01-24 14:16:52,0.0
4887,526,1766,-389,189,-113,2024-01-24 14:16:52,0.0
2288,469,398,58,-336,-271,2024-01-24 14:16:52,0.0
3833,-378,925,-348,97,-136,2024-01-24 14:16:52,0.0
3637,41,75,-531,-196,-98,2024-01-24 14:16:52,0.0
4731,-450,633,-531,326,106,2024-01-24 14:16:52,0.0
5832,788,299,-105,-201,-68,2024-01-24 14:16:52,0.0
5762,-588,2472,578,992,-378,2024-01-24 14:16:52,0.0
2916,681,1803,-81,-1010,-224,2024-01-24 14:16:52,0.0
4617,-503,1721,-358,408,-208,2024-01-24 14:16:53,0.0
4199,1204,1600,-48,-758,706,2024-01-24 14:16:53,0.0
1586,-664,883,70,-158,345,2024-01-24 14:16:53,0.0
4681,-491,1280,360,457,-203,2024-01-24 14:16:53,0.0
3654,-526,826,64,-49,49,2024-01-24 14:16:53,0.0
3767,-641,724,306,51,-355,2024-01-24 14:16:53,0.0
5099,-161,1299,112,89,-253,2024-01-24 14:16:53,0.0
5837,-708,894,-73,-481,372,2024-01-24 14:16:53,0.0
5218,-577,3039,-346,339,459,2024-01-24 14:16:53,0.0
3271,2430,1148,-211,-631,353,2024-01-24 14:16:53,0.0
3832,-979,855,567,78,-20,2024-01-24 14:16:53,0.0
4803,8,1897,-216,144,-236,2024-01-24 14:16:53,0.0
2547,577,301,38,-365,-154,2024-01-24 14:16:53,0.0
3934,-453,931,-182,233,-229,2024-01-24 14:16:53,0.0
3543,46,99,-566,-119,-63,2024-01-24 14:16:53,0.0
4107,-135,152,-517,284,118,2024-01-24 14:16:53,0.0
5771,168,1018,-305,522,-54,2024-01-24 14:16:53,0.0
5475,292,1793,369,705,-183,2024-01-24 14:16:54,0.0
4533,1118,3199,664,-469,-229,2024-01-24 14:16:54,0.0
2440,-1122,1586,-692,-512,108,2024-01-24 14:16:54,0.0
4914,1287,1775,73,200,199,2024-01-24 14:16:54,0.0
2585,-633,1255,-51,-1264,755,2024-01-24 14:16:54,0.0
3427,-391,983,188,759,-232,2024-01-24 14:16:54,0.0
4109,-328,1423,161,-139,1,2024-01-24 14:16:54,0.0
3754,-598,580,223,135,-211,2024-01-24 14:16:54,0.0
4645,-320,1103,106,-5,-258,2024-01-24 14:16:54,0.0
5397,-839,228,-410,-554,296,2024-01-24 14:16:54,0.0
5188,-108,2208,-89,317,254,2024-01-24 14:16:54,0.0
3842,1378,2086,-534,-105,601,2024-01-24 14:16:54,0.0
4356,-213,1009,449,-579,2,2024-01-24 14:16:54,0.0
4236,-1052,1469,59,952,-199,2024-01-24 14:16:54,0.0
2906,681,390,-103,-1061,-127,2024-01-24 14:16:54,0.0
3314,-540,536,-76,737,-335,2024-01-24 14:16:54,0.0
3659,148,315,-431,-453,-12,2024-01-24 14:16:54,0.0
3807,-79,279,-388,465,73,2024-01-24 14:16:54,0.0
5676,-331,1581,-102,448,-4,2024-01-24 14:16:55,0.0
6260,-86,1275,93,68,-249,2024-01-24 14:16:55,0.0
5312,1033,3360,997,125,-461,2024-01-24 14:16:55,0.0
2331,-568,1755,-507,-954,7,2024-01-24 14:16:55,0.0
4630,521,1453,-183,355,233,2024-01-24 14:16:55,0.0
3006,766,1393,160,-1101,688,2024-01-24 14:16:55,0.0
2696,-1543,592,139,307,130,2024-01-24 14:16:55,0.0
4261,-241,1062,93,-82,-117,2024-01-24 14:16:55,0.0
3580,-752,392,-29,65,-131,2024-01-24 14:16:55,0.0
4826,-236,1214,136,669,-386,2024-01-24 14:16:55,0.0
5181,-1097,555,-511,-298,206,2024-01-24 14:16:55,0.0
5269,434,2683,12,-39,426,2024-01-24 14:16:55,0.0
3964,1319,2232,-453,139,679,2024-01-24 14:16:55,0.0
4349,-608,1011,437,-1098,-33,2024-01-24 14:16:55,0.0
3768,-865,1161,-34,1259,-308,2024-01-24 14:16:55,0.0
3354,830,627,-180,-1148,-83,2024-01-24 14:16:55,0.0
3308,-639,423,-168,454,-219,2024-01-24 14:16:55,0.0
3663,40,231,-636,-370,30,2024-01-24 14:16:56,0.0
4478,-216,263,-552,517,87,2024-01-24 14:16:56,0.0
5861,264,715,-225,392,-183,2024-01-24 14:16:56,0.0
6014,-613,1600,722,270,-412,2024-01-24 14:16:56,0.0
3306,685,2430,160,19,-2,2024-01-24 14:16:56,0.0
3870,-889,1946,-631,-794,-214,2024-01-24 14:16:56,0.0
4161,945,1102,87,209,441,2024-01-24 14:16:56,0.0
2504,-834,985,-31,-964,613,2024-01-24 14:16:56,0.0
3778,-918,651,34,848,-358,2024-01-24 14:16:56,0.0
3789,-267,762,55,-116,-31,2024-01-24 14:16:56,0.0
3957,-619,509,281,61,-288,2024-01-24 14:16:56,0.0
4745,-45,1153,264,-462,-177,2024-01-24 14:16:56,0.0
6572,-1291,505,-60,281,442,2024-01-24 14:16:56,0.0
4457,118,3837,-211,403,608,2024-01-24 14:16:56,
4722,1345,800,-182,-1030,389,2024-01-24 14:16:56,0.0
3662,-1808,1008,604,445,-377,2024-01-24 14:16:56,0.0
4120,876,1177,-382,-674,-198,2024-01-24 14:16:56,0.0
2292,-30,73,-144,-65,-311,2024-01-24 14:16:56,0.0
3696,-205,694,-414,189,-131,2024-01-24 14:16:57,0.0
3453,-9,14,-602,-206,78,2024-01-24 14:16:57,0.0
4904,-586,790,-396,742,41,2024-01-24 14:16:57,0.0
6886,487,329,-94,22,-361,2024-01-24 14:16:57,0.0
5741,-13,2229,605,542,-470,2024-01-24 14:16:57,0.0
2426,698,1726,-269,-1026,108,2024-01-24 14:16:57,0.0
4553,-429,1628,-320,840,-219,2024-01-24 14:16:57,0.0
4045,1164,1436,222,-1061,700,2024-01-24 14:16:57,0.0
1970,-1325,681,88,-122,386,2024-01-24 14:16:57,0.0
4338,-263,822,414,373,-335,2024-01-24 14:16:57,0.0
3921,-770,790,252,6,25,2024-01-24 14:16:57,0.0
4193,-481,862,415,207,-401,2024-01-24 14:16:57,0.0
4311,-969,1178,11,-404,34,2024-01-24 14:16:57,0.0
6884,-167,1676,-90,66,519,2024-01-24 14:16:57,0.0
3991,532,3001,-380,67,703,2024-01-24 14:16:57,0.0
4295,1102,694,233,-905,146,2024-01-24 14:16:57,0.0
3955,-1268,987,429,538,-230,2024-01-24 14:16:57,0.0
3737,629,640,-184,-874,-10,2024-01-24 14:16:58,0.0
2947,-337,252,-204,67,-197,2024-01-24 14:16:58,0.0
3427,299,205,-453,-151,19,2024-01-24 14:16:58,0.0
3608,-132,-16,-426,223,204,2024-01-24 14:16:58,0.0
5051,-731,1215,-374,1066,87,2024-01-24 14:16:58,0.0
7906,-4,1688,439,8,-334,2024-01-24 14:16:58,0.0
4063,1296,2464,487,-83,-221,2024-01-24 14:16:58,0.0
2298,-481,1542,-434,-363,77,2024-01-24 14:16:58,0.0
4898,400,1326,164,493,281,2024-01-24 14:16:58,0.0
3280,184,1245,287,-1444,955,2024-01-24 14:16:58,0.0
2655,-1405,503,242,425,2,2024-01-24 14:16:58,0.0
4088,-266,855,387,284,-195,2024-01-24 14:16:58,0.0
3692,-593,515,354,-90,-215,2024-01-24 14:16:58,0.0
4879,-337,1040,364,-12,-348,2024-01-24 14:16:58,0.0
6120,-1107,155,-255,-365,453,2024-01-24 14:16:58,0.0
5406,-509,2392,47,298,377,2024-01-24 14:16:58,0.0
3474,2003,1357,-454,-45,382,2024-01-24 14:16:58,0.0
4107,-661,894,608,-313,-41,2024-01-24 14:16:58,0.0
4607,-881,1594,-412,831,-458,2024-01-24 14:16:59,0.0
2565,834,434,-416,-815,-310,2024-01-24 14:16:59,0.0
3767,-676,759,-372,613,-420,2024-01-24 14:16:59,0.0
3505,331,104,-691,-133,-68,2024-01-24 14:16:59,0.0
4323,-68,6,-449,143,85,2024-01-24 14:16:59,0.0
5728,160,1094,-89,887,-130,2024-01-24 14:16:59,0.0
6568,-307,1994,660,96,-358,2024-01-24 14:16:59,0.0
3987,800,2190,272,-663,-195,2024-01-24 14:16:59,0.0
2410,-1020,1609,-679,86,-88,2024-01-24 14:16:59,0.0
5066,1269,1696,1,183,100,2024-01-24 14:16:59,0.0
2792,-693,1143,-105,-1147,733,2024-01-24 14:16:59,0.0
3236,-500,821,74,925,-273,2024-01-24 14:16:59,0.0
4184,-268,1224,176,-203,-71,2024-01-24 14:16:59,0.0
3919,-652,588,196,115,-201,2024-01-24 14:16:59,0.0
4513,-301,1119,184,-95,-382,2024-01-24 14:16:59,0.0
5898,-587,250,-348,-594,271,2024-01-24 14:16:59,0.0
5036,-195,3315,-194,273,521,2024-01-24 14:16:59,0.0
3734,1915,1463,-612,-348,541,2024-01-24 14:17:00,0.0
4172,-694,1027,505,-114,-224,2024-01-24 14:17:00,0.0
4172,555,1644,-343,167,-106,2024-01-24 14:17:00,0.0
3479,-125,565,-305,-572,-293,2024-01-24 14:17:00,0.0
3762,-346,1066,-770,362,-373,2024-01-24 14:17:00,0.0
3494,240,161,-963,-415,-49,2024-01-24 14:17:00,0.0
3575,-293,177,-875,352,172,2024-01-24 14:17:00,0.0
4195,130,1489,-312,345,35,2024-01-24 14:17:00,0.0
6598,-576,324,83,-592,-70,2024-01-24 14:17:00,0.0
4757,-4,2510,372,1260,-427,2024-01-24 14:17:00,0.0
3684,1316,1813,427,-681,-261,2024-01-24 14:17:00,0.0
4629,-474,1744,100,422,143,2024-01-24 14:17:00,0.0
4061,11,1576,-154,-1121,473,2024-01-24 14:17:00,0.0
3169,-423,1140,-254,361,123,2024-01-24 14:17:00,0.0
4001,242,1743,29,20,-83,2024-01-24 14:17:00,0.0
3513,-242,1121,-33,-65,40,2024-01-24 14:17:00,0.0
4034,-604,1126,-34,65,-156,2024-01-24 14:17:00,0.0
4116,-326,833,-54,76,-167,2024-01-24 14:17:00,0.0
4495,19,1158,101,341,-246,2024-01-24 14:17:01,0.0
4592,-370,819,205,-506,56,2024-01-24 14:17:01,0.0
4895,-770,761,63,11,19,2024-01-24 14:17:01,0.0
4795,-453,1942,-82,-66,228,2024-01-24 14:17:01,0.0
3665,1102,1586,-21,-307,342,2024-01-24 14:17:01,0.0
3719,202,712,399,104,169,2024-01-24 14:17:01,0.0
5295,-755,1595,1,-48,-29,2024-01-24 14:17:01,0.0
3118,88,623,-128,-8,-261,2024-01-24 14:17:01,0.0
3978,72,762,-301,54,-308,2024-01-24 14:17:01,0.0
3514,259,481,-535,-114,-4,2024-01-24 14:17:01,0.0
3735,-101,232,-409,-4,52,2024-01-24 14:17:01,0.0
4806,-368,460,-411,260,54,2024-01-24 14:17:01,0.0
4850,319,667,-145,366,-139,2024-01-24 14:17:01,0.0
5815,-749,888,-42,104,-259,2024-01-24 14:17:01,0.0
5636,783,2224,175,71,-315,2024-01-24 14:17:01,0.0
2310,382,1628,-275,-1027,201,2024-01-24 14:17:01,0.0
4647,-386,1547,-232,753,-80,2024-01-24 14:17:01,0.0
3925,529,1558,238,-840,515,2024-01-24 14:17:02,0.0
2797,-1002,890,-199,-49,269,2024-01-24 14:17:02,0.0
4059,-51,934,36,102,-169,2024-01-24 14:17:02,0.0
3686,-496,670,11,49,-39,2024-01-24 14:17:02,0.0
4154,-351,725,222,289,-307,2024-01-24 14:17:02,0.0
4954,-226,1300,262,-90,-193,2024-01-24 14:17:02,0.0
6178,-641,228,-109,-468,377,2024-01-24 14:17:02,0.0
5026,130,3453,221,275,511,2024-01-24 14:17:02,0.0
3316,1889,1070,129,-785,592,2024-01-24 14:17:02,
3641,-1208,758,931,265,-219,2024-01-24 14:17:02,0.0
4855,587,1668,9,117,-117,2024-01-24 14:17:02,0.0
2752,425,326,326,-465,-153,2024-01-24 14:17:02,0.0
3772,-146,594,105,-30,-140,2024-01-24 14:17:02,0.0
3710,-127,-29,-242,-134,58,2024-01-24 14:17:02,0.0
4828,-316,247,-321,373,180,2024-01-24 14:17:02,0.0
5650,809,489,104,119,-105,2024-01-24 14:17:02,0.0
5337,-496,1697,183,371,-65,2024-01-24 14:17:02,0.0
3683,674,2224,-72,-30,-336,2024-01-24 14:17:02,0.0
3972,-211,1452,-163,-450,100,2024-01-24 14:17:03,0.0
4015,606,1476,-17,-345,582,2024-01-24 14:17:03,0.0
2001,-575,849,179,-29,105,2024-01-24 14:17:03,0.0
4633,52,1087,376,378,-82,2024-01-24 14:17:03,0.0
3671,-593,775,414,-202,26,2024-01-24 14:17:03,0.0
4118,-549,922,486,374,-305,2024-01-24 14:17:03,0.0
4698,-723,1385,118,-317,62,2024-01-24 14:17:03,0.0
6492,-353,734,-3,-267,289,2024-01-24 14:17:03,0.0
4852,-80,2994,-23,301,410,2024-01-24 14:17:03,0.0
2817,2035,345,172,-988,323,2024-01-24 14:17:03,0.0
3966,-907,1117,635,858,-43,2024-01-24 14:17:03,0.0
4477,262,1495,17,-322,-119,2024-01-24 14:17:03,0.0
2790,528,118,269,-71,-132,2024-01-24 14:17:03,0.0
3908,-84,774,-40,13,-70,2024-01-24 14:17:03,0.0
3608,-101,-100,-234,-69,8,2024-01-24 14:17:03,0.0
5001,-581,456,-447,214,133,2024-01-24 14:17:03,0.0
5778,597,327,-122,-152,-199,2024-01-24 14:17:03,0.0
6263,477,3318,432,997,-434,2024-01-24 14:17:04,0.0
2531,474,1422,-231,-1569,-57,2024-01-24 14:17:04,0.0
4662,-345,1267,-424,828,30,2024-01-24 14:17:04,0.0
3702,608,1521,-98,-1064,575,2024-01-24 14:17:04,0.0
2080,-787,692,-154,199,78,2024-01-24 14:17:04,0.0
4418,-197,1260,69,330,-353,2024-01-24 14:17:04,0.0
3835,-489,697,-42,-50,-92,2024-01-24 14:17:04,0.0
4319,-367,812,186,482,-472,2024-01-24 14:17:04,0.0
4646,-1158,817,-225,-499,78,2024-01-24 14:17:04,0.0
5880,128,1862,73,-125,308,2024-01-24 14:17:04,0.0
4004,577,2703,-621,135,651,2024-01-24 14:17:04,0.0
4824,629,890,-26,-392,6,2024-01-24 14:17:04,0.0
3989,-836,1612,-282,453,-41,2024-01-24 14:17:04,0.0
3365,683,904,-550,-912,-179,2024-01-24 14:17:04,0.0
3029,-363,780,-527,342,-552,2024-01-24 14:17:04,0.0
3619,539,609,-766,-551,-233,2024-01-24 14:17:04,0.0
3443,-278,-120,-651,101,-125,2024-01-24 14:17:04,0.0
5584,-157,1549,-462,415,43,2024-01-24 14:17:05,0.0
6380,-372,-466,-263,-928,-219,2024-01-24 14:17:05,0.0
5392,628,2710,185,985,-433,2024-01-24 14:17:05,0.0
3261,-218,1976,-449,-1286,-120,2024-01-24 14:17:05,0.0
3613,-106,1137,-769,435,293,2024-01-24 14:17:05,0.0
3937,438,1520,-291,-496,230,2024-01-24 14:17:05,0.0
2317,-728,863,-347,282,-69,2024-01-24 14:17:05,0.0
4638,39,1225,-84,314,-248,2024-01-24 14:17:05,0.0
3726,-877,588,8,19,-231,2024-01-24 14:17:05,0.0
4429,-179,998,120,429,-503,2024-01-24 14:17:05,0.0
5341,-1305,206,-622,-343,94,2024-01-24 14:17:05,0.0
5097,317,2801,-150,60,322,2024-01-24 14:17:05,0.0
4052,1257,1907,-726,17,576,2024-01-24 14:17:05,0.0
4181,-73,961,316,-451,-91,2024-01-24 14:17:05,0.0
4330,-492,1663,-276,621,-144,2024-01-24 14:17:05,0.0
3090,488,463,-525,-824,-216,2024-01-24 14:17:05,0.0
3404,-210,863,-562,584,-337,2024-01-24 14:17:05,0.0
3467,282,190,-830,-269,-141,2024-01-24 14:17:05,0.0
4048,-128,72,-641,289,94,2024-01-24 14:17:06,0.0
5128,416,1236,-311,365,118,2024-01-24 14:17:06,0.0
6391,-440,1662,308,249,-208,2024-01-24 14:17:06,0.0
4826,724,2566,198,-719,-342,2024-01-24 14:17:06,0.0
1951,-686,1237,-660,78,-67,2024-01-24 14:17:06,0.0
5320,1403,1857,19,303,52,2024-01-24 14:17:06,0.0
2886,-100,1235,228,-1111,835,2024-01-24 14:17:06,0.0
3224,-457,792,461,679,138,2024-01-24 14:17:06,0.0
4071,-652,1179,456,-61,161,2024-01-24 14:17:06,0.0
3777,-510,429,373,-94,-46,2024-01-24 14:17:06,0.0
4704,-313,936,263,386,-189,2024-01-24 14:17:06,0.0
4843,-532,768,49,-303,356,2024-01-24 14:17:06,0.0
5480,-136,1601,526,-48,402,2024-01-24 14:17:06,0.0
4184,840,2307,33,-315,833,2024-01-24 14:17:06,0.0
3979,789,673,452,-93,417,2024-01-24 14:17:06,0.0
4403,-1243,1793,697,801,-190,2024-01-24 14:17:06,0.0
3443,1320,606,451,-858,135,2024-01-24 14:17:06,0.0
3457,-439,459,904,494,-38,2024-01-24 14:17:07,0.0
3721,74,347,436,13,298,2024-01-24 14:17:07,0.0
3536,81,251,342,331,294,2024-01-24 14:17:07,0.0
5225,-318,1228,392,502,480,2024-01-24 14:17:07,0.0
6576,-271,1195,597,72,44,2024-01-24 14:17:07,0.0
5995,1710,3204,979,375,-200,2024-01-24 14:17:07,0.0
1354,-29,1745,395,-1352,321,2024-01-24 14:17:07,0.0
5264,509,2046,636,847,202,2024-01-24 14:17:07,0.0
3282,829,1727,1304,-1269,868,2024-01-24 14:17:07,0.0
2878,11,1454,1807,264,637,2024-01-24 14:17:07,0.0
4499,-553,1514,1874,-154,555,2024-01-24 14:17:07,0.0
3303,-860,840,1481,-26,388,2024-01-24 14:17:07,0.0
4387,-687,906,1134,638,41,2024-01-24 14:17:07,0.0
4365,940,1004,1043,-585,253,2024-01-24 14:17:07,0.0
6144,-631,-56,1020,-367,617,2024-01-24 14:17:07,0.0
3590,1630,2804,1984,-444,759,2024-01-24 14:17:07,0.0
4804,258,1572,1155,663,1145,2024-01-24 14:17:07,0.0
4502,-295,1872,2016,-493,-27,2024-01-24 14:17:07,0.0
3911,154,901,1498,-152,495,2024-01-24 14:17:08,0.0
2697,59,459,1388,-105,194,2024-01-24 14:17:08,0.0
4221,-419,764,962,364,252,2024-01-24 14:17:08,0.0
3839,425,297,690,40,441,2024-01-24 14:17:08,
4841,141,936,872,203,544,2024-01-24 14:17:08,0.0
5844,-678,652,760,261,342,2024-01-24 14:17:08,0.0
4949,1995,2364,1094,157,362,2024-01-24 14:17:08,0.0
3067,312,2726,1524,-742,364,2024-01-24 14:17:08,0.0
4416,-19,1374,1260,-205,632,2024-01-24 14:17:08,0.0
3651,582,1822,1827,-798,913,2024-01-24 14:17:08,0.0
3079,-783,1246,1751,374,625,2024-01-24 14:17:08,0.0
4700,-242,1466,1548,-307,723,2024-01-24 14:17:08,0.0
3202,-1164,535,1104,-43,447,2024-01-24 14:17:08,0.0
4109,-556,879,771,353,-26,2024-01-24 14:17:08,0.0
5046,485,1260,803,-429,58,2024-01-24 14:17:08,0.0
5834,-651,-90,408,-233,407,2024-01-24 14:17:08,0.0
4330,1094,2429,1231,-727,513,2024-01-24 14:17:08,0.0
3648,447,1466,861,190,659,2024-01-24 14:17:09,0.0
4326,-605,1569,1214,5,-49,2024-01-24 14:17:09,0.0
4470,892,1490,946,822,3,2024-01-24 14:17:09,0.0
2725,893,389,1536,-440,137,2024-01-24 14:17:09,0.0
4115,-1007,901,1096,449,104,2024-01-24 14:17:09,0.0
3724,347,220,427,-171,264,2024-01-24 14:17:09,0.0
5169,122,485,362,55,256,2024-01-24 14:17:09,0.0
5537,11,750,276,333,19,2024-01-24 14:17:09,0.0
5857,1130,2980,894,695,-1,2024-01-24 14:17:09,0.0
2822,540,2087,281,-1650,302,2024-01-24 14:17:09,0.0
4061,-443,1216,91,195,226,2024-01-24 14:17:09,0.0
3787,666,1628,379,-525,579,2024-01-24 14:17:09,0.0
2642,-840,1205,408,-121,203,2024-01-24 14:17:09,0.0
4474,124,1170,550,30,73,2024-01-24 14:17:09,0.0
3379,-453,697,504,-71,42,2024-01-24 14:17:09,0.0
4239,-310,705,655,95,-162,2024-01-24 14:17:09,0.0
4435,8,1177,466,-143,-33,2024-01-24 14:17:09,0.0
6629,-584,388,235,-691,492,2024-01-24 14:17:09,0.0
3907,439,3264,315,127,647,2024-01-24 14:17:10,0.0
4776,932,1210,-9,34,435,2024-01-24 14:17:10,0.0
3730,-869,924,668,199,-106,2024-01-24 14:17:10,0.0
4370,518,1274,-87,-572,-46,2024-01-24 14:17:10,0.0
2783,69,334,249,-50,-259,2024-01-24 14:17:10,0.0
3598,-247,809,-284,-4,-101,2024-01-24 14:17:10,0.0
3488,284,114,-431,25,-39,2024-01-24 14:17:10,0.0
4992,-419,941,-381,178,203,2024-01-24 14:17:10,0.0
6363,549,-189,117,55,-310,2024-01-24 14:17:10,0.0
5880,187,2452,632,711,-443,2024-01-24 14:17:10,0.0
2775,472,1753,-47,-1081,46,2024-01-24 14:17:10,0.0
4348,-470,1416,-196,147,-115,2024-01-24 14:17:10,0.0
3793,859,1146,63,-494,440,2024-01-24 14:17:10,0.0
2618,-784,971,140,118,129,2024-01-24 14:17:10,0.0
4429,49,1089,283,-60,22,2024-01-24 14:17:10,0.0
3460,-798,762,263,146,-51,2024-01-24 14:17:10,0.0
4555,-361,1104,276,350,-343,2024-01-24 14:17:10,0.0
4692,-138,1038,129,-713,230,2024-01-24 14:17:11,0.0
6081,-741,1577,-127,174,261,2024-01-24 14:17:11,0.0
3802,940,2662,-420,-242,772,2024-01-24 14:17:11,0.0
4761,325,779,299,-331,17,2024-01-24 14:17:11,0.0
3852,-779,1110,-39,825,-76,2024-01-24 14:17:11,0.0
3552,765,861,-218,-815,-181,2024-01-24 14:17:11,0.0
3262,-239,531,-251,380,-366,2024-01-24 14:17:11,0.0
3533,348,439,-540,-241,-120,2024-01-24 14:17:11,0.0
3983,-144,72,-437,-18,88,2024-01-24 14:17:11,0.0
5238,264,1366,-145,472,192,2024-01-24 14:17:11,0.0
6409,-793,306,371,-691,-143,2024-01-24 14:17:11,0.0
4538,557,2782,125,935,-507,2024-01-24 14:17:11,0.0
3664,328,2384,-56,-41,-495,2024-01-24 14:17:11,0.0
4095,717,1147,-212,-382,453,2024-01-24 14:17:11,0.0
3228,-154,1422,295,-729,508,2024-01-24 14:17:11,0.0
2872,-470,735,217,423,95,2024-01-24 14:17:11,0.0
4278,-429,1216,210,-322,73,2024-01-24 14:17:11,0.0
3690,-643,718,143,188,-298,2024-01-24 14:17:11,0.0
4860,-273,1251,182,-242,-185,2024-01-24 14:17:12,0.0
5138,-912,836,-279,-167,256,2024-01-24 14:17:12,0.0
5094,-114,2426,314,-311,309,2024-01-24 14:17:12,0.0
3195,1526,875,-560,34,747,2024-01-24 14:17:12,0.0
5391,-405,1515,201,-304,105,2024-01-24 14:17:12,0.0
4046,-775,1106,-349,136,-190,2024-01-24 14:17:12,0.0
2689,880,177,-252,-535,-217,2024-01-24 14:17:12,0.0
4134,-422,688,-247,116,-249,2024-01-24 14:17:12,0.0
3451,-91,130,-621,-121,-230,2024-01-24 14:17:12,0.0
4435,-355,-62,-783,-60,-148,2024-01-24 14:17:12,0.0
5945,741,158,-491,839,-400,2024-01-24 14:17:12,0.0
5922,191,1528,134,-401,-178,2024-01-24 14:17:12,0.0
2829,-19,1465,-322,150,-80,2024-01-24 14:17:12,0.0
4589,-245,1347,-199,-419,-196,2024-01-24 14:17:12,0.0
4060,368,975,-234,274,718,2024-01-24 14:17:12,0.0
2492,-1149,707,-202,-293,12,2024-01-24 14:17:12,0.0
4120,287,936,-45,758,-202,2024-01-24 14:17:12,0.0
3926,-588,1215,261,84,-149,2024-01-24 14:17:13,0.0
4503,-588,768,191,-20,-245,2024-01-24 14:17:13,0.0
4960,-1103,1100,-69,-246,182,2024-01-24 14:17:13,0.0
5981,-190,1723,-241,96,150,2024-01-24 14:17:13,0.0
3592,765,2105,-592,55,669,2024-01-24 14:17:13,0.0
4702,330,774,-59,-422,8,2024-01-24 14:17:13,0.0
4043,-938,1426,-310,949,-177,2024-01-24 14:17:13,0.0
3444,1243,677,-355,-1022,-46,2024-01-24 14:17:13,0.0
3493,69,495,36,623,-320,2024-01-24 14:17:13,0.0
3702,225,368,-146,-368,39,2024-01-24 14:17:13,0.0
3919,-313,-52,-71,50,14,2024-01-24 14:17:13,0.0
5428,-286,1050,-203,362,265,2024-01-24 14:17:13,0.0
6466,139,1051,215,-55,-372,2024-01-24 14:17:13,0.0
4436,816,2733,464,-45,-155,2024-01-24 14:17:13,0.0
2837,-645,1536,-485,-363,13,2024-01-24 14:17:13,0.0
4358,727,1222,57,143,342,2024-01-24 14:17:13,0.0
3051,-423,1377,119,-628,505,2024-01-24 14:17:13,
3544,-321,800,147,211,-62,2024-01-24 14:17:13,0.0
3872,-702,901,261,26,-13,2024-01-24 14:17:14,0.0
3903,-406,766,157,29,-308,2024-01-24 14:17:14,0.0
5146,14,1304,233,-46,-117,2024-01-24 14:17:14,0.0
5946,-754,410,-22,-660,321,2024-01-24 14:17:14,0.0
3725,-142,2863,127,249,410,2024-01-24 14:17:14,0.0
5022,1197,1135,-550,-1,350,2024-01-24 14:17:14,0.0
3486,-1129,1177,325,-169,-286,2024-01-24 14:17:14,0.0
4083,937,1148,-467,-232,-83,2024-01-24 14:17:14,0.0
3133,19,407,-151,-7,-245,2024-01-24 14:17:14,0.0
3796,108,508,-415,-215,-83,2024-01-24 14:17:14,0.0
3469,-68,-89,-379,-117,4,2024-01-24 14:17:14,0.0
4989,-477,686,-346,124,189,2024-01-24 14:17:14,0.0
6181,464,-67,115,-2,-310,2024-01-24 14:17:14,0.0
5093,101,1397,129,258,-163,2024-01-24 14:17:14,0.0
4065,329,2193,129,36,-359,2024-01-24 14:17:14,0.0
3703,-4,487,-393,-617,476,2024-01-24 14:17:14,0.0
3620,-310,987,74,63,344,2024-01-24 14:17:14,0.0
2836,-534,860,-193,572,-112,2024-01-24 14:17:15,0.0
4465,-14,928,86,-19,-46,2024-01-24 14:17:15,0.0
3698,-636,503,96,45,-153,2024-01-24 14:17:15,0.0
4389,-387,968,189,132,-202,2024-01-24 14:17:15,0.0
5164,-926,770,-80,-277,259,2024-01-24 14:17:15,0.0
5281,-151,1240,-35,-267,373,2024-01-24 14:17:15,0.0
3632,602,1973,-521,390,775,2024-01-24 14:17:15,0.0
5527,597,1406,352,-216,88,2024-01-24 14:17:15,0.0
4082,-978,1358,188,292,-82,2024-01-24 14:17:15,0.0
3024,797,243,269,-771,-112,2024-01-24 14:17:15,0.0
3678,-364,333,372,289,-267,2024-01-24 14:17:15,0.0
3725,-161,338,-54,-2,-59,2024-01-24 14:17:15,0.0
4459,59,59,-30,-52,34,2024-01-24 14:17:15,0.0
4914,-397,971,-240,585,44,2024-01-24 14:17:15,0.0
6934,-264,1165,277,-391,-299,2024-01-24 14:17:15,0.0
3481,496,1878,189,-402,-90,2024-01-24 14:17:15,0.0
3864,-606,1938,-230,109,-244,2024-01-24 14:17:15,0.0
3739,906,1108,-219,-342,478,2024-01-24 14:17:15,0.0
3018,-844,977,79,-181,225,2024-01-24 14:17:16,0.0
3932,-395,832,-83,410,-72,2024-01-24 14:17:16,0.0
3751,-598,728,28,-224,50,2024-01-24 14:17:16,0.0
4472,-702,385,76,80,-208,2024-01-24 14:17:16,0.0
4489,-78,968,236,92,-228,2024-01-24 14:17:16,0.0
5763,-1213,78,-212,-278,243,2024-01-24 14:17:16,0.0
4472,-136,2741,340,703,254,2024-01-24 14:17:16,0.0
4129,886,1284,-558,201,562,2024-01-24 14:17:16,0.0
4215,-869,818,327,-894,-174,2024-01-24 14:17:16,0.0
4175,-202,1416,-399,897,-345,2024-01-24 14:17:16,0.0
2899,601,324,-465,-631,-259,2024-01-24 14:17:16,0.0
3650,-138,528,-384,318,-303,2024-01-24 14:17:16,0.0
3482,120,-304,-578,-391,90,2024-01-24 14:17:16,0.0
4683,-476,192,-415,277,144,2024-01-24 14:17:16,0.0
6503,706,208,36,95,-324,2024-01-24 14:17:16,0.0
5934,-125,2041,610,619,-492,2024-01-24 14:17:16,0.0
3172,892,1891,334,-332,-57,2024-01-24 14:17:16,0.0
4651,-1138,1031,-315,-507,409,2024-01-24 14:17:17,0.0
3684,507,1126,-32,-117,550,2024-01-24 14:17:17,0.0
2448,-874,645,-65,-112,159,2024-01-24 14:17:17,0.0
4308,25,1043,126,486,-201,2024-01-24 14:17:17,0.0
3699,-809,748,206,12,-198,2024-01-24 14:17:17,0.0
4456,-318,929,111,267,-280,2024-01-24 14:17:17,0.0
4241,-612,1131,-9,-478,12,2024-01-24 14:17:17,0.0
6468,-184,1086,136,-79,313,2024-01-24 14:17:17,0.0
3333,305,2088,-251,-180,689,2024-01-24 14:17:17,0.0
5822,53,1179,61,-34,86,2024-01-24 14:17:17,0.0
3643,-741,935,70,185,-309,2024-01-24 14:17:17,0.0
3340,866,591,-244,-364,-158,2024-01-24 14:17:17,0.0
3518,-278,529,-97,30,-303,2024-01-24 14:17:17,0.0
3371,57,403,-487,-88,-52,2024-01-24 14:17:17,0.0
3817,153,-70,-350,14,43,2024-01-24 14:17:17,0.0
4705,224,663,17,629,153,2024-01-24 14:17:17,0.0
7334,-1271,1197,268,-721,-167,2024-01-24 14:17:17,0.0
4659,1548,1729,217,329,-603,2024-01-24 14:17:17,0.0
3433,-146,2120,-105,-38,-252,2024-01-24 14:17:18,0.0
4342,48,983,-277,-362,425,2024-01-24 14:17:18,0.0
3240,-44,1333,-46,-222,557,2024-01-24 14:17:18,0.0
2813,-388,768,142,358,-33,2024-01-24 14:17:18,0.0
4320,-341,1170,305,-15,8,2024-01-24 14:17:18,0.0
3780,-664,418,224,94,-223,2024-01-24 14:17:18,0.0
4918,-446,1135,120,-286,-200,2024-01-24 14:17:18,0.0
4846,-752,323,-430,-191,200,2024-01-24 14:17:18,0.0
5288,10,2374,104,116,278,2024-01-24 14:17:18,0.0
3876,1151,1460,-641,124,772,2024-01-24 14:17:18,0.0
5149,-275,1066,439,-1023,-16,2024-01-24 14:17:18,0.0
3829,-697,1255,-68,858,-180,2024-01-24 14:17:18,0.0
2755,531,342,-339,-882,-193,2024-01-24 14:17:18,0.0
3786,-270,664,-430,621,-382,2024-01-24 14:17:18,0.0
3724,315,129,-544,-290,-1,2024-01-24 14:17:18,0.0
4226,-292,-304,-553,-88,180,2024-01-24 14:17:18,0.0
5604,20,944,-365,1000,-196,2024-01-24 14:17:18,0.0
6851,422,2188,584,-216,-442,2024-01-24 14:17:19,0.0
3576,552,1739,154,-1092,-38,2024-01-24 14:17:19,0.0
3795,-984,1477,-377,-154,-28,2024-01-24 14:17:19,0.0
4129,1588,1356,93,-476,579,2024-01-24 14:17:19,0.0
2454,-1156,741,270,-779,655,2024-01-24 14:17:19,0.0
4150,-711,314,370,525,-190,2024-01-24 14:17:19,0.0
3876,-826,279,232,-61,141,2024-01-24 14:17:19,0.0
4061,-900,366,229,429,-306,2024-01-24 14:17:19,0.0
4627,128,1108,289,-197,-76,2024-01-24 14:17:19,0.0
6221,-809,127,192,-627,462,2024-01-24 14:17:19,0.0
3832,-183,2552,111,1361,122,2024-01-24 14:17:19,0.0
5464,1061,995,-383,-566,533,2024-01-24 14:17:19,
3734,-1541,661,302,-182,-383,2024-01-24 14:17:19,0.0
3813,959,974,-426,464,-167,2024-01-24 14:17:19,0.0
3106,312,218,262,-265,-187,2024-01-24 14:17:19,0.0
3710,-253,536,-31,218,-18,2024-01-24 14:17:19,0.0
3683,-27,-408,-170,-76,50,2024-01-24 14:17:19,0.0
4012,33,1102,-229,1225,90,2024-01-24 14:17:20,0.0
8375,-420,2233,397,-28,-378,2024-01-24 14:17:20,0.0
4677,1062,1660,458,-620,-465,2024-01-24 14:17:20,0.0
2376,-474,1168,-485,-67,51,2024-01-24 14:17:20,0.0
4901,191,1865,-498,477,-10,2024-01-24 14:17:20,0.0
3221,326,1042,-71,-1042,677,2024-01-24 14:17:20,0.0
2886,-939,912,-13,417,43,2024-01-24 14:17:20,0.0
4187,-247,1146,152,-21,-136,2024-01-24 14:17:20,0.0
3797,-786,526,246,15,-175,2024-01-24 14:17:20,0.0
4723,-272,758,158,-77,-241,2024-01-24 14:17:20,0.0
4813,-1273,329,-337,91,81,2024-01-24 14:17:20,0.0
5123,507,2909,60,346,448,2024-01-24 14:17:20,0.0
4202,582,1419,-586,-667,721,2024-01-24 14:17:20,0.0
4622,-664,1544,310,-211,-394,2024-01-24 14:17:20,0.0
4132,132,1258,-273,151,-349,2024-01-24 14:17:20,0.0
2646,570,410,-213,-620,-254,2024-01-24 14:17:20,0.0
3534,-543,668,-382,238,-372,2024-01-24 14:17:20,0.0
3599,400,-136,-669,-365,19,2024-01-24 14:17:20,0.0
4390,-135,-32,-337,475,57,2024-01-24 14:17:21,0.0
6359,561,711,180,576,-231,2024-01-24 14:17:21,0.0
5708,-423,1437,595,152,-354,2024-01-24 14:17:21,0.0
4009,488,2084,13,-589,-168,2024-01-24 14:17:21,0.0
2731,-436,1086,-565,74,54,2024-01-24 14:17:21,0.0
4902,779,1845,-152,151,350,2024-01-24 14:17:21,0.0
2522,-649,770,-193,-825,496,2024-01-24 14:17:21,0.0
3961,-245,660,44,851,-58,2024-01-24 14:17:21,0.0
4080,-806,1089,172,-152,-1,2024-01-24 14:17:21,0.0
3977,-549,349,210,250,-284,2024-01-24 14:17:21,0.0
4459,-562,1187,-53,-569,-44,2024-01-24 14:17:21,0.0
6557,-154,758,-209,634,287,2024-01-24 14:17:21,0.0
4012,209,3030,-76,-259,659,2024-01-24 14:17:21,0.0
4510,869,919,-326,-443,517,2024-01-24 14:17:21,0.0
4704,-918,1348,449,247,-396,2024-01-24 14:17:21,0.0
3513,469,832,-451,-191,-85,2024-01-24 14:17:21,0.0
3019,308,570,95,-55,-372,2024-01-24 14:17:21,0.0
3723,91,743,-294,-138,36,2024-01-24 14:17:21,0.0
3028,40,-144,-111,-90,-35,2024-01-24 14:17:22,0.0
4953,-503,374,-385,414,135,2024-01-24 14:17:22,0.0
6137,469,450,-29,66,-258,2024-01-24 14:17:22,0.0
5914,153,2074,663,346,-351,2024-01-24 14:17:22,0.0
3235,288,1623,252,-739,-99,2024-01-24 14:17:22,0.0
3939,-540,1433,-412,496,-106,2024-01-24 14:17:22,0.0
4477,1040,1645,165,-450,475,2024-01-24 14:17:22,0.0
2361,-982,693,-50,-392,405,2024-01-24 14:17:22,0.0
4192,-217,925,219,460,-94,2024-01-24 14:17:22,0.0
3724,-858,820,48,-180,-32,2024-01-24 14:17:22,0.0
3954,-319,572,173,343,-342,2024-01-24 14:17:22,0.0
4765,-432,1215,170,-229,-239,2024-01-24 14:17:22,0.0
6024,-687,278,-339,-143,228,2024-01-24 14:17:22,0.0
4939,-517,2784,-85,349,311,2024-01-24 14:17:22,0.0
3696,1387,1218,-588,-467,274,2024-01-24 14:17:22,0.0
3995,-564,884,308,181,-142,2024-01-24 14:17:22,0.0
4672,67,1938,-392,26,-247,2024-01-24 14:17:22,0.0
2502,574,300,-287,-457,-280,2024-01-24 14:17:23,0.0
4017,-211,840,-325,181,-269,2024-01-24 14:17:23,0.0
3582,203,-65,-498,-87,-40,2024-01-24 14:17:23,0.0
4504,-255,160,-515,230,113,2024-01-24 14:17:23,0.0
5406,528,995,-217,233,-6,2024-01-24 14:17:23,0.0
5606,-855,1307,53,-154,-139,2024-01-24 14:17:23,0.0
4403,1126,2314,59,-235,-301,2024-01-24 14:17:23,0.0
3174,-685,1584,-262,-107,-220,2024-01-24 14:17:23,0.0
4568,984,1199,19,-99,323,2024-01-24 14:17:23,0.0
2878,-480,1030,107,-825,591,2024-01-24 14:17:23,0.0
3555,-606,683,57,630,-101,2024-01-24 14:17:23,0.0
4133,-279,1015,152,-158,55,2024-01-24 14:17:23,0.0
3727,-606,336,168,116,-220,2024-01-24 14:17:23,0.0
5004,63,1099,219,41,-200,2024-01-24 14:17:23,0.0
5179,-1122,428,-129,-219,318,2024-01-24 14:17:23,0.0
5014,-603,2039,-72,-509,359,2024-01-24 14:17:23,0.0
3393,1416,974,-506,124,516,2024-01-24 14:17:23,0.0
5173,-252,1358,534,-137,-79,2024-01-24 14:17:23,0.0
3800,-345,1229,-174,306,-204,2024-01-24 14:17:24,0.0
3011,572,151,-162,-188,-175,2024-01-24 14:17:24,0.0
4041,-119,559,-130,263,-221,2024-01-24 14:17:24,0.0
3622,165,-17,-255,-137,56,2024-01-24 14:17:24,0.0
4077,-192,8,-83,232,22,2024-01-24 14:17:24,0.0
5345,167,751,-74,698,-127,2024-01-24 14:17:24,0.0
6431,-218,2116,382,466,-271,2024-01-24 14:17:24,0.0
4012,1190,1859,290,-831,-145,2024-01-24 14:17:24,0.0
2800,-1092,1518,-513,506,5,2024-01-24 14:17:24,0.0
4704,972,1525,58,-139,120,2024-01-24 14:17:24,0.0
2843,-769,939,-63,-602,499,2024-01-24 14:17:24,0.0
3604,-216,920,-86,466,-144,2024-01-24 14:17:24,0.0
3918,-308,927,47,-224,10,2024-01-24 14:17:24,0.0
3837,-474,714,153,-33,-219,2024-01-24 14:17:24,0.0
4652,161,1178,293,42,-139,2024-01-24 14:17:24,0.0
6560,-888,41,-29,-368,313,2024-01-24 14:17:24,0.0
3867,-124,2735,331,527,138,2024-01-24 14:17:24,0.0
4306,1438,1082,-456,-399,598,2024-01-24 14:17:25,0.0
4549,-927,1374,509,-37,-200,2024-01-24 14:17:25,0.0
3963,108,1273,-332,99,-218,2024-01-24 14:17:25,0.0
2694,632,50,-186,-221,-216,2024-01-24 14:17:25,0.0
3895,-348,839,-373,212,-168,2024-01-24 14:17:25,0.0
3544,116,-110,-597,-168,22,2024-01-24 14:17:25,0.0
4747,-88,342,-362,407,168,2024-01-24 14:17:25,
5434,507,191,75,362,-48,2024-01-24 14:17:25,0.0
6016,23,2060,481,954,-337,2024-01-24 14:17:25,0.0
3809,662,1951,74,-898,11,2024-01-24 14:17:25,0.0
3476,-744,1236,-215,48,-33,2024-01-24 14:17:25,0.0
4843,1119,1588,140,-73,489,2024-01-24 14:17:25,0.0
2435,-1100,901,-83,-970,577,2024-01-24 14:17:25,0.0
3827,-61,654,54,754,-251,2024-01-24 14:17:25,0.0
3970,-387,1130,247,-204,-15,2024-01-24 14:17:25,0.0
3864,-600,585,328,98,-319,2024-01-24 14:17:25,0.0
4940,-705,1391,46,-148,-171,2024-01-24 14:17:25,0.0
6021,-278,530,-177,-144,389,2024-01-24 14:17:26,0.0
4763,-302,2962,40,423,353,2024-01-24 14:17:26,0.0
3372,2179,697,-237,-685,553,2024-01-24 14:17:26,0.0
4421,-1053,1254,683,208,-214,2024-01-24 14:17:26,0.0
4258,464,1421,-354,-162,-206,2024-01-24 14:17:26,0.0
2591,704,249,89,-223,-210,2024-01-24 14:17:26,0.0
4011,-202,790,-84,125,-152,2024-01-24 14:17:26,0.0
3559,18,29,-386,-138,-35,2024-01-24 14:17:26,0.0
4570,-90,249,-392,389,127,2024-01-24 14:17:26,0.0
5769,406,589,-71,-29,-21,2024-01-24 14:17:26,0.0
5738,-648,2393,342,978,-350,2024-01-24 14:17:26,0.0
3699,761,1898,-256,-856,-219,2024-01-24 14:17:26,0.0
3873,-180,927,-396,-8,-73,2024-01-24 14:17:26,0.0
4514,854,1747,52,-337,626,2024-01-24 14:17:26,0.0
1971,-784,708,261,-595,368,2024-01-24 14:17:26,0.0
4514,-233,1151,282,886,-190,2024-01-24 14:17:26,0.0
3637,-502,1053,301,-135,15,2024-01-24 14:17:26,0.0
4044,-656,602,304,208,-305,2024-01-24 14:17:26,0.0
4440,-628,1506,-36,-206,-176,2024-01-24 14:17:27,0.0
6368,90,415,-159,-371,286,2024-01-24 14:17:27,0.0
4625,-1022,2895,79,242,448,2024-01-24 14:17:27,0.0
3406,1566,805,-380,-663,330,2024-01-24 14:17:27,0.0
4534,-684,1290,345,416,-141,2024-01-24 14:17:27,0.0
4266,313,1837,-382,-193,-243,2024-01-24 14:17:27,0.0
2677,571,207,-56,-353,-262,2024-01-24 14:17:27,0.0
3842,-206,835,-276,23,-136,2024-01-24 14:17:27,0.0
3740,-142,67,-540,-250,19,2024-01-24 14:17:27,0.0
4872,-92,376,-549,255,157,2024-01-24 14:17:27,0.0
5548,551,296,-120,48,-184,2024-01-24 14:17:27,0.0
5650,-60,1915,439,742,-408,2024-01-24 14:17:27,0.0
3421,325,1795,-140,-864,-185,2024-01-24 14:17:27,0.0
3961,-781,1374,-556,100,-268,2024-01-24 14:17:27,0.0
4487,967,1618,-236,-210,392,2024-01-24 14:17:27,0.0
2477,-700,997,-226,-494,420,2024-01-24 14:17:27,0.0
4086,54,954,198,684,-145,2024-01-24 14:17:27,0.0
3949,-542,1080,256,-63,79,2024-01-24 14:17:28,0.0
4003,-504,731,298,250,-256,2024-01-24 14:17:28,0.0
4572,-144,1304,231,-573,12,2024-01-24 14:17:28,0.0
6368,-219,759,1,131,387,2024-01-24 14:17:28,0.0
4685,-237,2676,180,-32,467,2024-01-24 14:17:28,0.0
3117,1209,591,-4,-620,469,2024-01-24 14:17:28,0.0
4531,-66,1117,922,391,-62,2024-01-24 14:17:28,0.0
4557,508,1858,404,159,27,2024-01-24 14:17:28,0.0
2629,170,411,465,-184,-9,2024-01-24 14:17:28,0.0
4091,-78,714,240,19,-14,2024-01-24 14:17:28,0.0
3495,35,0,39,88,225,2024-01-24 14:17:28,0.0
4178,2,0,-33,338,288,2024-01-24 14:17:28,0.0
5327,377,1005,93,772,22,2024-01-24 14:17:28,0.0
5962,-223,1707,538,416,-82,2024-01-24 14:17:28,0.0
4590,1333,2299,462,-678,5,2024-01-24 14:17:28,0.0
2182,-871,1497,193,-338,124,2024-01-24 14:17:28,0.0
5260,908,2062,296,276,72,2024-01-24 14:17:28,0.0
3199,-129,1341,666,-1151,760,2024-01-24 14:17:28,0.0
3249,-287,1006,679,537,169,2024-01-24 14:17:29,0.0
4168,-133,1407,761,-191,238,2024-01-24 14:17:29,0.0
3570,-511,820,651,227,86,2024-01-24 14:17:29,0.0
3982,-768,1116,616,418,-203,2024-01-24 14:17:29,0.0
4996,426,1169,514,-14,-239,2024-01-24 14:17:29,0.0
4855,-542,190,188,-529,290,2024-01-24 14:17:29,0.0
4914,370,2046,822,293,100,2024-01-24 14:17:29,0.0
4188,567,2389,358,-360,545,2024-01-24 14:17:29,0.0
3647,-40,468,632,-854,204,2024-01-24 14:17:29,0.0
4425,-967,1544,158,1040,-35,2024-01-24 14:17:29,0.0
3764,1019,975,-100,-1201,92,2024-01-24 14:17:29,0.0
3666,-486,622,89,476,-207,2024-01-24 14:17:29,0.0
3599,44,585,-463,-156,-105,2024-01-24 14:17:29,0.0
3444,65,351,-458,258,-102,2024-01-24 14:17:29,0.0
5073,-128,1023,-487,-38,62,2024-01-24 14:17:29,0.0
5441,177,320,-232,-1,-306,2024-01-24 14:17:29,0.0
5507,13,2041,90,518,-366,2024-01-24 14:17:29,0.0
3992,578,1501,-208,-841,-70,2024-01-24 14:17:30,0.0
2580,-1026,1308,-890,92,-303,2024-01-24 14:17:30,0.0
5012,477,1823,-440,15,-332,2024-01-24 14:17:30,0.0
3549,-308,1275,-896,-738,306,2024-01-24 14:17:30,0.0
3360,-655,976,-773,133,-319,2024-01-24 14:17:30,0.0
3949,81,1125,-539,-4,-211,2024-01-24 14:17:30,0.0
3938,-367,894,-156,-258,-245,2024-01-24 14:17:30,0.0
4471,-451,1072,-24,-44,-406,2024-01-24 14:17:30,0.0
5237,-1027,793,-520,-473,-119,2024-01-24 14:17:30,0.0
5333,-413,2443,-186,18,34,2024-01-24 14:17:30,0.0
3310,957,1669,-935,-317,195,2024-01-24 14:17:30,0.0
4825,247,728,-662,-299,-76,2024-01-24 14:17:30,0.0
4189,-828,1702,-1081,341,-155,2024-01-24 14:17:30,0.0
3340,389,647,-1473,-807,-339,2024-01-24 14:17:30,0.0
3859,-185,982,-1527,194,-399,2024-01-24 14:17:30,0.0
3575,166,738,-1699,-160,-328,2024-01-24 14:17:30,0.0
3920,201,800,-1368,238,-246,2024-01-24 14:17:30,0.0
4586,-513,1460,-1207,-109,-154,2024-01-24 14:17:30,0.0
6544,-765,26,-1154,-742,-366,2024-01-24 14:17:31,0.0
4631,-477,2128,-1309,804,-620,2024-01-24 14:17:31,
3377,1178,2122,-1440,-603,-466,2024-01-24 14:17:31,0.0
4149,-370,1563,-1214,275,-353,2024-01-24 14:17:31,0.0
4141,-64,1185,-1320,-521,2,2024-01-24 14:17:31,0.0
2677,-1285,1420,-1848,195,-379,2024-01-24 14:17:31,0.0
4228,765,1558,-1375,217,-700,2024-01-24 14:17:31,0.0
4037,-426,846,-831,-466,-476,2024-01-24 14:17:31,0.0
4384,-637,839,-697,-80,-581,2024-01-24 14:17:31,0.0
4790,-831,1299,-1143,-399,-298,2024-01-24 14:17:31,0.0
4774,-725,1856,-1019,-1207,130,2024-01-24 14:17:31,0.0
3951,613,2131,-1940,867,-157,2024-01-24 14:17:31,0.0
5539,863,1946,-1773,-300,-196,2024-01-24 14:17:31,0.0
3447,-613,1358,-1510,-556,-338,2024-01-24 14:17:31,0.0
3430,260,1327,-2345,250,-490,2024-01-24 14:17:31,0.0
3736,433,1492,-1962,-129,-651,2024-01-24 14:17:31,0.0
3594,322,1136,-1982,-82,-489,2024-01-24 14:17:31,0.0
3946,400,824,-1614,-432,-409,2024-01-24 14:17:32,0.0
4450,-744,986,-1601,-189,-360,2024-01-24 14:17:32,0.0
5098,586,1197,-1418,37,-412,2024-01-24 14:17:32,0.0
4779,-806,1161,-1383,-646,-145,2024-01-24 14:17:32,0.0
3885,-238,2805,-1854,555,-629,2024-01-24 14:17:32,0.0
3797,464,1363,-1648,-611,-567,2024-01-24 14:17:32,0.0
4174,34,1306,-1689,290,-101,2024-01-24 14:17:32,0.0
2865,-938,1383,-1953,-333,-363,2024-01-24 14:17:32,0.0
4329,513,1316,-1653,237,-467,2024-01-24 14:17:32,0.0
3672,-397,1245,-1078,-157,-344,2024-01-24 14:17:32,0.0
4544,-525,1356,-690,-13,-381,2024-01-24 14:17:32,0.0
5119,-508,1723,-747,-371,-316,2024-01-24 14:17:32,0.0
5651,6,1526,-591,-1195,307,2024-01-24 14:17:32,0.0
3226,-362,2415,-1162,656,-143,2024-01-24 14:17:32,0.0
4339,1506,1376,-1539,-548,-43,2024-01-24 14:17:32,0.0
4394,-937,1861,-949,-52,-300,2024-01-24 14:17:32,0.0
3542,601,1273,-1596,-189,-449,2024-01-24 14:17:32,0.0
3530,193,1198,-1274,22,-438,2024-01-24 14:17:32,0.0
3663,198,1109,-1393,-324,-334,2024-01-24 14:17:33,0.0
3445,738,460,-1073,-352,-100,2024-01-24 14:17:33,0.0
4345,-276,835,-872,68,71,2024-01-24 14:17:33,0.0
5336,271,158,-632,-115,-49,2024-01-24 14:17:33,0.0
5077,-918,822,-357,-35,-50,2024-01-24 14:17:33,0.0
5352,1228,3097,-227,167,-380,2024-01-24 14:17:33,0.0
2550,-304,1458,-595,-589,-138,2024-01-24 14:17:33,0.0
4657,766,950,-392,317,270,2024-01-24 14:17:33,0.0
3290,-637,1402,-63,-866,639,2024-01-24 14:17:33,0.0
3408,-581,850,-573,836,-196,2024-01-24 14:17:33,0.0
4113,352,1164,-163,-427,72,2024-01-24 14:17:33,0.0
3730,-489,807,-62,241,-71,2024-01-24 14:17:33,0.0
4879,416,1160,229,109,-102,2024-01-24 14:17:33,0.0
4779,-988,1002,140,10,312,2024-01-24 14:17:33,0.0
5656,339,1611,430,-603,539,2024-01-24 14:17:33,0.0
3945,278,2334,261,305,462,2024-01-24 14:17:33,0.0
3839,809,689,532,-194,321,2024-01-24 14:17:33,0.0
4198,-1121,1514,595,642,-110,2024-01-24 14:17:34,0.0
3633,1076,693,168,-573,110,2024-01-24 14:17:34,0.0
3392,-323,542,569,451,-67,2024-01-24 14:17:34,0.0
3779,336,496,255,-134,140,2024-01-24 14:17:34,0.0
3688,-100,173,317,-114,260,2024-01-24 14:17:34,0.0
4783,-622,909,25,327,135,2024-01-24 14:17:34,0.0
5957,272,205,16,-220,-150,2024-01-24 14:17:34,0.0
5682,676,2364,434,961,-239,2024-01-24 14:17:34,0.0
3265,389,1968,244,-1249,-6,2024-01-24 14:17:34,0.0
3776,-383,1171,-252,407,59,2024-01-24 14:17:34,0.0
4287,638,1354,449,-734,536,2024-01-24 14:17:34,0.0
2193,-901,851,154,212,212,2024-01-24 14:17:34,0.0
4766,381,1190,451,-39,-11,2024-01-24 14:17:34,0.0
3355,-853,609,367,26,76,2024-01-24 14:17:34,0.0
4274,-63,926,531,341,-220,2024-01-24 14:17:34,0.0
4511,-325,1183,413,-625,110,2024-01-24 14:17:34,0.0
6943,-311,1123,248,-472,493,2024-01-24 14:17:34,0.0
3390,-108,2557,-105,-139,694,2024-01-24 14:17:34,0.0
5273,808,1069,117,33,153,2024-01-24 14:17:35,0.0
3693,-1461,1418,-36,264,-33,2024-01-24 14:17:35,0.0
3271,909,427,-400,-525,-159,2024-01-24 14:17:35,0.0
3586,-314,441,-11,364,-269,2024-01-24 14:17:35,0.0
3718,206,300,-249,-319,-112,2024-01-24 14:17:35,0.0
3877,-80,343,-63,273,-77,2024-01-24 14:17:35,0.0
5207,-253,1004,-35,521,-147,2024-01-24 14:17:35,0.0
6812,35,928,468,-597,-284,2024-01-24 14:17:35,0.0
4671,621,2160,439,48,-170,2024-01-24 14:17:35,0.0
2762,-475,1549,-170,-193,-343,2024-01-24 14:17:35,0.0
4550,401,1172,-282,29,179,2024-01-24 14:17:35,0.0
2937,345,1033,-27,-724,571,2024-01-24 14:17:35,0.0
2944,-802,781,170,834,-191,2024-01-24 14:17:35,0.0
4384,-70,1172,243,115,9,2024-01-24 14:17:35,0.0
3681,-609,724,352,174,-235,2024-01-24 14:17:35,0.0
5423,194,1470,345,-312,-75,2024-01-24 14:17:35,0.0
5402,-1543,639,-227,-212,400,2024-01-24 14:17:35,0.0
4718,445,3563,-355,37,432,2024-01-24 14:17:36,0.0
3879,1526,687,-288,104,541,2024-01-24 14:17:36,0.0
3683,-857,1342,241,92,-305,2024-01-24 14:17:36,0.0
3919,632,1060,-394,-299,-26,2024-01-24 14:17:36,0.0
3078,36,536,-150,109,-333,2024-01-24 14:17:36,0.0
3704,184,668,-511,-226,-172,2024-01-24 14:17:36,0.0
3578,-70,-94,-581,-240,14,2024-01-24 14:17:36,0.0
5147,-277,1407,-304,556,69,2024-01-24 14:17:36,0.0
6673,-200,-41,196,-1021,-232,2024-01-24 14:17:36,0.0
4910,658,2668,327,934,-548,2024-01-24 14:17:36,0.0
4621,-332,1999,47,-990,-323,2024-01-24 14:17:36,0.0
2806,621,691,-632,76,645,2024-01-24 14:17:36,0.0
3299,123,1340,148,-251,241,2024-01-24 14:17:36,0.0
3542,-997,585,-106,492,-89,2024-01-24 14:17:36,0.0
3784,-69,960,-55,14,-53,2024-01-24 14:17:36,
3861,-397,771,259,379,-378,2024-01-24 14:17:36,0.0
4958,-49,1206,202,-134,-43,2024-01-24 14:17:36,0.0
5960,-920,1298,-397,-43,350,2024-01-24 14:17:36,0.0
4357,447,3091,-247,-201,579,2024-01-24 14:17:37,0.0
4236,1113,715,-315,91,368,2024-01-24 14:17:37,0.0
4004,-1194,1322,317,50,-139,2024-01-24 14:17:37,0.0
4044,791,1101,-437,-126,-189,2024-01-24 14:17:37,0.0
2591,-66,431,-87,-60,-166,2024-01-24 14:17:37,0.0
3670,-172,842,-478,186,-251,2024-01-24 14:17:37,0.0
3675,138,-45,-539,-505,55,2024-01-24 14:17:37,0.0
5030,-345,996,-261,396,41,2024-01-24 14:17:37,0.0
7047,659,992,456,188,-377,2024-01-24 14:17:37,0.0
4802,32,2910,592,-118,-364,2024-01-24 14:17:37,0.0
2289,-123,1327,-525,-255,88,2024-01-24 14:17:37,0.0
4445,485,1427,63,-180,194,2024-01-24 14:17:37,0.0
3262,-363,1288,4,-406,429,2024-01-24 14:17:37,0.0
3251,-260,934,-24,447,34,2024-01-24 14:17:37,0.0
3865,-295,1038,197,-172,6,2024-01-24 14:17:37,0.0
3897,-637,619,298,196,-103,2024-01-24 14:17:37,0.0
4676,-351,1126,376,-211,-175,2024-01-24 14:17:37,0.0
5204,-1154,1229,-202,427,185,2024-01-24 14:17:38,0.0
5415,488,3276,-104,-889,468,2024-01-24 14:17:38,0.0
3355,1221,650,-476,251,455,2024-01-24 14:17:38,0.0
3938,-907,910,405,4,-208,2024-01-24 14:17:38,0.0
4257,389,1345,-411,38,-53,2024-01-24 14:17:38,0.0
2784,339,271,139,-314,-106,2024-01-24 14:17:38,0.0
3639,-295,653,-37,26,-11,2024-01-24 14:17:38,0.0
3321,-269,-56,-456,-240,128,2024-01-24 14:17:38,0.0
4944,-329,968,-317,607,115,2024-01-24 14:17:38,0.0
6410,-81,220,-221,63,-435,2024-01-24 14:17:38,0.0
5556,580,2780,56,1055,-703,2024-01-24 14:17:38,0.0
2786,479,1543,-490,-1467,-25,2024-01-24 14:17:38,0.0
4409,-409,1354,-337,762,-275,2024-01-24 14:17:38,0.0
3796,977,1112,15,-433,357,2024-01-24 14:17:38,0.0
2605,-1096,1071,-181,10,212,2024-01-24 14:17:38,0.0
4401,-60,956,-137,93,-108,2024-01-24 14:17:38,0.0
3441,-514,877,-129,56,-40,2024-01-24 14:17:38,0.0
4380,-57,836,266,7,-236,2024-01-24 14:17:38,0.0
4106,-1157,1644,46,-436,193,2024-01-24 14:17:39,0.0
7247,129,1495,324,-842,444,2024-01-24 14:17:39,0.0
3088,357,1692,-118,-63,549,2024-01-24 14:17:39,0.0
5543,1079,750,210,53,218,2024-01-24 14:17:39,0.0
3595,-1332,1176,420,225,-191,2024-01-24 14:17:39,0.0
3386,1134,698,1,-685,25,2024-01-24 14:17:39,0.0
3026,-117,223,300,53,-46,2024-01-24 14:17:39,0.0
3941,-119,394,-75,-138,3,2024-01-24 14:17:39,0.0
4112,-310,56,-229,326,104,2024-01-24 14:17:39,0.0
5387,934,734,44,704,-4,2024-01-24 14:17:39,0.0
6229,-899,2013,737,-151,-154,2024-01-24 14:17:39,0.0
3935,983,2505,-134,-805,-182,2024-01-24 14:17:39,0.0
3215,-933,955,-466,-173,-23,2024-01-24 14:17:39,0.0
4278,1032,1171,71,86,214,2024-01-24 14:17:39,0.0
2610,-1118,946,-86,-343,464,2024-01-24 14:17:39,0.0
4009,-240,922,-31,706,-203,2024-01-24 14:17:39,0.0
3708,-273,888,148,-42,-7,2024-01-24 14:17:39,0.0
4140,-572,751,306,96,-152,2024-01-24 14:17:40,0.0
4565,-494,1096,196,-655,49,2024-01-24 14:17:40,0.0
7090,-607,757,29,44,300,2024-01-24 14:17:40,0.0
3412,568,2814,-30,38,464,2024-01-24 14:17:40,0.0
4505,618,579,-112,-148,339,2024-01-24 14:17:40,0.0
4213,-1301,1352,147,145,-78,2024-01-24 14:17:40,0.0
3645,1089,900,-7,-622,-22,2024-01-24 14:17:40,0.0
2824,-490,568,194,923,-364,2024-01-24 14:17:40,0.0
4219,230,751,-175,-181,-168,2024-01-24 14:17:40,0.0
3562,-291,38,-186,-3,-25,2024-01-24 14:17:40,0.0
4982,-284,981,-239,366,99,2024-01-24 14:17:40,0.0
6440,352,-78,-57,-435,-191,2024-01-24 14:17:40,0.0
5136,229,2790,270,457,-334,2024-01-24 14:17:40,0.0
3389,344,1867,-222,-264,-381,2024-01-24 14:17:40,0.0
4085,224,1011,-235,-58,308,2024-01-24 14:17:40,0.0
3423,181,1497,211,-625,560,2024-01-24 14:17:40,0.0
2462,-510,876,216,495,70,2024-01-24 14:17:40,0.0
4296,-303,1277,343,-135,44,2024-01-24 14:17:40,0.0
3812,-701,583,246,82,-67,2024-01-24 14:17:41,0.0
4470,58,1105,277,186,-240,2024-01-24 14:17:41,0.0
5056,-1255,894,-282,-67,83,2024-01-24 14:17:41,0.0
5120,729,2633,73,-285,400,2024-01-24 14:17:41,0.0
3188,714,1158,-502,-326,499,2024-01-24 14:17:41,0.0
5268,-308,1386,163,315,-113,2024-01-24 14:17:41,0.0
4215,-713,1686,-452,325,-217,2024-01-24 14:17:41,0.0
2806,1057,260,-387,-945,-175,2024-01-24 14:17:41,0.0
3364,-527,683,-222,299,-214,2024-01-24 14:17:41,0.0
3805,8,41,-492,-389,-16,2024-01-24 14:17:41,0.0
4565,-509,171,-492,104,124,2024-01-24 14:17:41,0.0
6124,815,32,-184,396,-381,2024-01-24 14:17:41,0.0
5721,126,2651,820,394,-402,2024-01-24 14:17:41,0.0
2992,282,1633,86,-672,-59,2024-01-24 14:17:41,0.0
4740,-530,1330,-283,-298,71,2024-01-24 14:17:41,0.0
3641,691,1090,-28,-99,631,2024-01-24 14:17:41,0.0
2319,-796,1021,41,-73,255,2024-01-24 14:17:41,0.0
4449,-28,983,304,379,-169,2024-01-24 14:17:42,0.0
3443,-645,835,300,-44,-4,2024-01-24 14:17:42,0.0
4432,-140,1091,373,497,-386,2024-01-24 14:17:42,0.0
4833,-925,1239,8,-460,287,2024-01-24 14:17:42,0.0
5993,-238,1773,94,-456,310,2024-01-24 14:17:42,0.0
3385,438,2140,-507,79,588,2024-01-24 14:17:42,0.0
4848,282,517,0,34,5,2024-01-24 14:17:42,0.0
4502,-1123,2036,-194,632,-87,2024-01-24 14:17:42,0.0
3235,1089,484,-516,-950,-73,2024-01-24 14:17:42,0.0
2873,-299,395,-105,489,-311,2024-01-24 14:17:42,
3730,118,482,-458,-206,-49,2024-01-24 14:17:42,0.0
3835,-260,61,-448,12,110,2024-01-24 14:17:42,0.0
5020,-23,1574,-258,721,-12,2024-01-24 14:17:42,0.0
6971,57,2187,680,-101,-382,2024-01-24 14:17:42,0.0
3845,875,1964,279,-589,-272,2024-01-24 14:17:42,0.0
3346,-885,1864,-340,361,-238,2024-01-24 14:17:42,0.0
3987,1245,1297,-57,84,197,2024-01-24 14:17:42,0.0
3032,-200,1137,248,-662,519,2024-01-24 14:17:43,0.0
3633,-521,1082,290,450,74,2024-01-24 14:17:43,0.0
3799,-567,955,153,-121,100,2024-01-24 14:17:43,0.0
4128,-391,505,314,108,-157,2024-01-24 14:17:43,0.0
4666,15,1147,341,-341,-68,2024-01-24 14:17:43,0.0
5758,-1130,374,-271,63,287,2024-01-24 14:17:43,0.0
5031,410,2772,5,115,377,2024-01-24 14:17:43,0.0
3271,1372,1074,-223,-300,453,2024-01-24 14:17:43,0.0
4230,-543,808,503,179,-81,2024-01-24 14:17:43,0.0
4837,-261,1921,-187,620,-80,2024-01-24 14:17:43,0.0
2792,734,319,-88,-838,-54,2024-01-24 14:17:43,0.0
3700,-196,545,11,249,-195,2024-01-24 14:17:43,0.0
3602,-172,-4,-336,-174,29,2024-01-24 14:17:43,0.0
4450,-218,237,-309,120,30,2024-01-24 14:17:43,0.0
5551,827,446,-123,684,-171,2024-01-24 14:17:43,0.0
6039,-386,2367,734,554,-214,2024-01-24 14:17:43,0.0
3618,1006,1954,252,-1026,-46,2024-01-24 14:17:43,0.0
3559,-1027,1528,-474,464,-74,2024-01-24 14:17:43,0.0
4213,1192,1509,101,-36,401,2024-01-24 14:17:44,0.0
2618,-668,1006,120,-531,477,2024-01-24 14:17:44,0.0
4018,-279,883,126,397,-159,2024-01-24 14:17:44,0.0
3650,-616,804,241,-79,8,2024-01-24 14:17:44,0.0
4127,-141,804,373,155,-207,2024-01-24 14:17:44,0.0
4574,-136,1238,398,-452,7,2024-01-24 14:17:44,0.0
6917,-252,427,181,-399,465,2024-01-24 14:17:44,0.0
3533,-403,3238,147,233,606,2024-01-24 14:17:44,0.0
4627,1080,857,30,-112,378,2024-01-24 14:17:44,0.0
4411,-996,1622,524,591,-141,2024-01-24 14:17:44,0.0
3956,184,1302,-355,-595,-102,2024-01-24 14:17:44,0.0
2210,209,171,-47,279,-395,2024-01-24 14:17:44,0.0
3905,156,836,-219,-63,-66,2024-01-24 14:17:44,0.0
3782,55,112,-164,-275,159,2024-01-24 14:17:44,0.0
4527,-357,825,-182,171,233,2024-01-24 14:17:44,0.0
7094,498,749,234,387,-392,2024-01-24 14:17:44,0.0
5331,786,2735,1003,-57,-258,2024-01-24 14:17:44,0.0
2523,-69,1560,-74,-630,-26,2024-01-24 14:17:45,0.0
4887,55,1113,83,-15,191,2024-01-24 14:17:45,0.0
3290,127,1328,139,-845,664,2024-01-24 14:17:45,0.0
2237,-724,776,149,718,-41,2024-01-24 14:17:45,0.0
4682,-103,1277,419,-228,-25,2024-01-24 14:17:45,0.0
3593,-964,390,171,44,-69,2024-01-24 14:17:45,0.0
4742,-142,1079,279,-151,-172,2024-01-24 14:17:45,0.0
5084,-1022,557,-249,-369,222,2024-01-24 14:17:45,0.0
5169,324,2380,-66,-97,362,2024-01-24 14:17:45,0.0
3305,1326,1271,-384,49,638,2024-01-24 14:17:45,0.0
4900,-674,1321,488,-186,-189,2024-01-24 14:17:45,0.0
4381,-36,1404,-211,489,-283,2024-01-24 14:17:45,0.0
2653,615,168,-62,-692,-205,2024-01-24 14:17:45,0.0
3578,-245,470,-153,246,-217,2024-01-24 14:17:45,0.0
3643,38,-36,-384,-80,-78,2024-01-24 14:17:45,0.0
4716,-328,309,-369,219,9,2024-01-24 14:17:45,0.0
6159,835,-69,-97,200,-302,2024-01-24 14:17:45,0.0
6650,201,3167,930,827,-578,2024-01-24 14:17:45,0.0
2589,157,1118,-37,-1550,89,2024-01-24 14:17:46,0.0
4110,-424,1205,-359,906,-24,2024-01-24 14:17:46,0.0
3950,1235,1536,289,-410,457,2024-01-24 14:17:46,0.0
2577,-878,1096,117,-28,427,2024-01-24 14:17:46,0.0
4224,-258,967,424,124,-115,2024-01-24 14:17:46,0.0
3826,-467,787,332,21,-23,2024-01-24 14:17:46,0.0
3952,-507,684,466,223,-326,2024-01-24 14:17:46,0.0
4532,-1062,1238,-155,-415,30,2024-01-24 14:17:46,0.0
6745,309,2451,-51,-150,360,2024-01-24 14:17:46,0.0
3160,694,2003,-535,-146,749,2024-01-24 14:17:46,0.0
4815,26,990,-16,-132,14,2024-01-24 14:17:46,0.0
4245,-1036,1790,-298,632,-306,2024-01-24 14:17:46,0.0
3071,742,533,-680,-888,-204,2024-01-24 14:17:46,0.0
3159,-357,505,-627,388,-437,2024-01-24 14:17:46,0.0
3686,149,344,-877,-263,-174,2024-01-24 14:17:46,0.0
4328,233,-33,-660,-300,113,2024-01-24 14:17:46,0.0
5236,342,551,-114,747,-238,2024-01-24 14:17:46,0.0
6567,-39,2415,578,407,-261,2024-01-24 14:17:47,0.0
4059,838,2295,128,-967,-150,2024-01-24 14:17:47,0.0
2672,-1005,1118,-490,72,79,2024-01-24 14:17:47,0.0
4703,847,1592,-208,286,147,2024-01-24 14:17:47,0.0
2869,-795,1125,-221,-927,510,2024-01-24 14:17:47,0.0
3178,-251,637,-166,639,-230,2024-01-24 14:17:47,0.0
4048,-290,1060,75,195,-247,2024-01-24 14:17:47,0.0
4130,-509,836,198,132,-303,2024-01-24 14:17:47,0.0
4912,-606,970,-40,-466,-155,2024-01-24 14:17:47,0.0
6724,-302,2585,-209,229,463,2024-01-24 14:17:47,0.0
3270,857,2525,-669,-393,698,2024-01-24 14:17:47,0.0
5274,-24,1257,-195,-325,4,2024-01-24 14:17:47,0.0
3684,-706,1492,-218,202,-350,2024-01-24 14:17:47,0.0
3366,969,428,-374,-864,-159,2024-01-24 14:17:47,0.0
3074,-512,500,-444,-91,-216,2024-01-24 14:17:47,0.0
3300,-84,19,-842,-293,-51,2024-01-24 14:17:47,0.0
4492,-138,-120,-720,-175,221,2024-01-24 14:17:47,0.0
6072,206,296,-458,775,-261,2024-01-24 14:17:47,0.0
6301,314,2656,457,394,-474,2024-01-24 14:17:48,0.0
3371,334,1632,23,-926,-263,2024-01-24 14:17:48,0.0
3765,-214,1023,-545,388,-21,2024-01-24 14:17:48,0.0
4365,1093,1336,57,-274,663,2024-01-24 14:17:48,0.0
2614,-1505,849,-129,-650,576,2024-01-24 14:17:48,
3603,-104,439,-71,832,-292,2024-01-24 14:17:48,0.0
3994,-420,845,228,-39,-72,2024-01-24 14:17:48,0.0
4235,-559,477,164,197,-328,2024-01-24 14:17:48,0.0
4495,-1343,721,-222,-505,175,2024-01-24 14:17:48,0.0
7158,-152,2472,-262,674,351,2024-01-24 14:17:48,0.0
3716,1200,3029,-344,-266,736,2024-01-24 14:17:48,0.0
4018,11,603,313,-922,268,2024-01-24 14:17:48,0.0
4400,-1454,1627,-5,778,-259,2024-01-24 14:17:48,0.0
3623,773,481,-253,-1090,-162,2024-01-24 14:17:48,0.0
3147,-357,269,-328,340,-322,2024-01-24 14:17:48,0.0
3470,-4,279,-539,-267,-140,2024-01-24 14:17:48,0.0
3579,8,-422,-314,206,-22,2024-01-24 14:17:48,0.0
5145,-245,1118,-231,971,125,2024-01-24 14:17:49,0.0
7167,-608,1562,557,-519,-272,2024-01-24 14:17:49,0.0
4652,947,2735,574,332,-495,2024-01-24 14:17:49,0.0
2442,-639,1381,-482,-667,-31,2024-01-24 14:17:49,0.0
4572,765,1410,-157,687,137,2024-01-24 14:17:49,0.0
3231,-49,1343,115,-935,672,2024-01-24 14:17:49,0.0
3129,-864,741,160,434,-77,2024-01-24 14:17:49,0.0
3991,-425,876,171,58,-92,2024-01-24 14:17:49,0.0
3918,-549,512,226,78,-346,2024-01-24 14:17:49,0.0
4639,-115,1112,164,-170,-239,2024-01-24 14:17:49,0.0
6865,-1097,465,-470,-334,319,2024-01-24 14:17:49,0.0
4148,-503,3504,-565,49,611,2024-01-24 14:17:49,0.0
4216,2120,994,-819,-172,124,2024-01-24 14:17:49,0.0
3873,-1261,1227,61,-163,-164,2024-01-24 14:17:49,0.0
4045,463,1058,-622,-350,-312,2024-01-24 14:17:49,0.0
2753,324,-41,-279,73,-283,2024-01-24 14:17:49,0.0
3474,-193,680,-595,-47,-219,2024-01-24 14:17:49,0.0
3891,135,40,-641,187,-92,2024-01-24 14:17:50,0.0
4716,-133,1095,-400,145,54,2024-01-24 14:17:50,0.0
7310,-223,627,223,-548,-488,2024-01-24 14:17:50,0.0
5288,473,2391,176,148,-360,2024-01-24 14:17:50,0.0
2391,-404,1072,-670,-921,-90,2024-01-24 14:17:50,0.0
4335,36,760,-553,419,-106,2024-01-24 14:17:50,0.0
3744,-137,1496,-570,-569,498,2024-01-24 14:17:50,0.0
2476,-634,589,-336,290,-278,2024-01-24 14:17:50,0.0
4175,106,922,-140,260,-227,2024-01-24 14:17:50,0.0
4216,-1032,738,-4,-227,-241,2024-01-24 14:17:50,0.0
4951,-275,951,-150,109,-338,2024-01-24 14:17:50,0.0
6612,-1110,1281,-534,-220,454,2024-01-24 14:17:50,0.0
4525,-243,3344,-796,630,226,2024-01-24 14:17:50,0.0
3571,2036,867,-1137,-900,279,2024-01-24 14:17:50,0.0
4669,-1320,1676,-311,515,-425,2024-01-24 14:17:50,0.0
3505,741,1394,-1258,-174,-332,2024-01-24 14:17:50,0.0
2790,403,235,-874,90,-413,2024-01-24 14:17:50,0.0
3871,-27,1158,-1012,-179,-211,2024-01-24 14:17:50,0.0
3444,308,120,-1002,-34,-120,2024-01-24 14:17:51,0.0
4343,-44,94,-515,-42,159,2024-01-24 14:17:51,0.0
5412,77,730,-312,461,104,2024-01-24 14:17:51,0.0
7335,26,3430,545,1291,-414,2024-01-24 14:17:51,0.0
2306,1047,1283,-402,-1663,45,2024-01-24 14:17:51,0.0
4614,-435,1629,-285,1118,23,2024-01-24 14:17:51,0.0
3728,1304,1392,320,-1097,644,2024-01-24 14:17:51,0.0
2253,-782,996,348,163,485,2024-01-24 14:17:51,0.0
4389,-609,1055,366,-157,-28,2024-01-24 14:17:51,0.0
3788,-503,683,218,81,61,2024-01-24 14:17:51,0.0
4080,-270,881,361,439,-349,2024-01-24 14:17:51,0.0
4441,-456,1321,130,-345,175,2024-01-24 14:17:51,0.0
6523,287,1642,401,-62,523,2024-01-24 14:17:51,0.0
3712,394,2643,-57,-299,887,2024-01-24 14:17:51,0.0
4444,922,879,590,-160,206,2024-01-24 14:17:51,0.0
4661,-796,1655,855,513,-194,2024-01-24 14:17:51,0.0
3034,732,495,179,-1127,272,2024-01-24 14:17:51,0.0
2946,227,135,572,372,-166,2024-01-24 14:17:52,0.0
3971,158,314,247,-204,300,2024-01-24 14:17:52,0.0
3557,-133,-192,238,236,347,2024-01-24 14:17:52,0.0
5288,130,1236,215,671,275,2024-01-24 14:17:52,0.0
7673,689,2446,1095,661,-214,2024-01-24 14:17:52,0.0
3813,1403,2470,1321,-1300,85,2024-01-24 14:17:52,0.0
2786,-912,1580,203,709,236,2024-01-24 14:17:52,0.0
4604,1149,1833,877,-325,389,2024-01-24 14:17:52,0.0
2814,-386,1081,820,-706,876,2024-01-24 14:17:52,0.0
3989,-500,920,1153,232,131,2024-01-24 14:17:52,0.0
3969,-635,867,711,-253,393,2024-01-24 14:17:52,0.0
3179,-697,350,641,324,-85,2024-01-24 14:17:52,0.0
5032,-290,832,638,254,-210,2024-01-24 14:17:52,0.0
4582,261,658,545,-700,332,2024-01-24 14:17:52,0.0
5234,-117,1932,1089,-181,710,2024-01-24 14:17:52,0.0
4327,623,2032,136,-87,1161,2024-01-24 14:17:52,0.0
5765,189,2030,914,-134,84,2024-01-24 14:17:52,0.0
3331,-666,1007,797,58,-144,2024-01-24 14:17:52,0.0
2616,663,412,400,-294,143,2024-01-24 14:17:53,0.0
4121,-298,580,610,321,-3,2024-01-24 14:17:53,0.0
3763,25,60,326,-247,471,2024-01-24 14:17:53,0.0
3739,45,-93,403,311,572,2024-01-24 14:17:53,0.0
4844,59,780,623,591,749,2024-01-24 14:17:53,0.0
6743,-404,2594,883,558,246,2024-01-24 14:17:53,0.0
3781,1948,3135,1572,-283,-72,2024-01-24 14:17:53,0.0
3872,-416,1734,1073,-906,534,2024-01-24 14:17:53,0.0
3809,1088,1083,1469,-546,1039,2024-01-24 14:17:53,0.0
2847,-588,1425,2362,-683,700,2024-01-24 14:17:53,0.0
4155,-1093,1346,1832,435,598,2024-01-24 14:17:53,0.0
3822,-816,707,1474,-479,354,2024-01-24 14:17:53,0.0
3530,-581,583,1072,278,-46,2024-01-24 14:17:53,0.0
5282,191,777,1038,-38,25,2024-01-24 14:17:53,0.0
4053,-802,1006,936,-610,386,2024-01-24 14:17:53,0.0
6020,771,1987,1229,-542,485,2024-01-24 14:17:53,0.0
3484,388,1927,1138,-363,1139,2024-01-24 14:17:53,0.0
4763,-494,1712,1369,390,31,2024-01-24 14:17:54,
4640,204,1394,1429,314,-289,2024-01-24 14:17:54,0.0
2688,992,446,1428,-933,569,2024-01-24 14:17:54,0.0
3501,-858,317,1501,429,52,2024-01-24 14:17:54,0.0
4297,167,223,687,-130,390,2024-01-24 14:17:54,0.0
4972,343,-127,733,142,458,2024-01-24 14:17:54,0.0
5499,896,-185,948,-112,513,2024-01-24 14:17:54,0.0
4912,438,2665,1327,664,185,2024-01-24 14:17:54,0.0
3359,1348,3363,1378,-1040,211,2024-01-24 14:17:54,0.0
3472,-442,997,997,-516,841,2024-01-24 14:17:54,0.0
4697,544,1780,1487,-64,835,2024-01-24 14:17:54,0.0
2670,-541,1238,1615,-748,785,2024-01-24 14:17:54,0.0
3590,71,1187,1652,839,483,2024-01-24 14:17:54,0.0
4081,-1048,1224,1325,-504,397,2024-01-24 14:17:54,0.0
3812,-886,389,705,326,-91,2024-01-24 14:17:54,0.0
4693,9,782,624,-40,-195,2024-01-24 14:17:54,0.0
5560,-50,131,321,-648,428,2024-01-24 14:17:54,0.0
5045,691,3194,1158,291,82,2024-01-24 14:17:54,0.0
3576,1085,1544,372,-538,990,2024-01-24 14:17:55,0.0
4426,-1149,1120,1142,-29,-140,2024-01-24 14:17:55,0.0
4433,185,1340,355,499,-168,2024-01-24 14:17:55,0.0
2824,792,385,503,-826,202,2024-01-24 14:17:55,0.0
3408,-594,589,505,271,-82,2024-01-24 14:17:55,0.0
3856,70,-122,-89,-192,128,2024-01-24 14:17:55,0.0
4501,-495,71,-26,406,184,2024-01-24 14:17:55,0.0
6216,732,221,32,311,-114,2024-01-24 14:17:55,0.0
6208,491,3440,1038,728,-341,2024-01-24 14:17:55,0.0
2478,1153,1596,157,-1269,194,2024-01-24 14:17:55,0.0
4226,-431,1523,392,422,134,2024-01-24 14:17:55,0.0
3998,985,1520,544,-855,559,2024-01-24 14:17:55,0.0
2407,-917,1019,515,-178,437,2024-01-24 14:17:55,0.0
4282,-215,1217,526,133,-77,2024-01-24 14:17:55,0.0
3748,-318,699,419,24,58,2024-01-24 14:17:55,0.0
4022,-344,667,524,112,-273,2024-01-24 14:17:55,0.0
4246,-24,983,186,-80,-72,2024-01-24 14:17:55,0.0
6269,-633,897,-110,-500,297,2024-01-24 14:17:56,0.0
4097,201,3258,-272,25,586,2024-01-24 14:17:56,0.0
5149,1278,1041,-427,65,215,2024-01-24 14:17:56,0.0
3766,-1485,1245,147,-2,-193,2024-01-24 14:17:56,0.0
3666,1169,854,-394,-334,-155,2024-01-24 14:17:56,0.0
2908,190,376,-18,-53,-258,2024-01-24 14:17:56,0.0
3652,-196,749,-419,-111,-52,2024-01-24 14:17:56,0.0
3739,43,86,-476,-185,8,2024-01-24 14:17:56,0.0
5277,19,807,-248,314,134,2024-01-24 14:17:56,0.0
6472,-267,235,199,-415,-216,2024-01-24 14:17:56,0.0
5334,886,2771,642,753,-520,2024-01-24 14:17:56,0.0
2775,217,1723,49,-840,-70,2024-01-24 14:17:56,0.0
4360,219,1003,-88,242,196,2024-01-24 14:17:56,0.0
3829,314,1584,200,-572,801,2024-01-24 14:17:56,0.0
2449,-821,752,175,41,161,2024-01-24 14:17:56,0.0
4479,-29,1131,334,109,-15,2024-01-24 14:17:56,0.0
3469,-888,388,213,75,-17,2024-01-24 14:17:56,0.0
4791,-514,880,211,512,-392,2024-01-24 14:17:56,0.0
3794,-812,1121,-336,-187,103,2024-01-24 14:17:57,0.0
6413,181,2123,-43,-138,424,2024-01-24 14:17:57,0.0
3915,444,2591,-212,31,655,2024-01-24 14:17:57,0.0
4484,559,629,103,-344,239,2024-01-24 14:17:57,0.0
4402,-1308,1803,218,601,-231,2024-01-24 14:17:57,0.0
3269,910,539,-315,-1067,-52,2024-01-24 14:17:57,0.0
3090,-201,315,-57,360,-293,2024-01-24 14:17:57,0.0
3587,200,418,-333,-237,36,2024-01-24 14:17:57,0.0
3839,-258,-44,-245,-25,119,2024-01-24 14:17:57,0.0
5340,-283,1286,-95,480,-14,2024-01-24 14:17:57,0.0
6407,-449,286,382,-517,-330,2024-01-24 14:17:57,0.0
5122,872,2056,307,296,-393,2024-01-24 14:17:57,0.0
2468,398,1611,-201,-666,44,2024-01-24 14:17:57,0.0
4963,-8,1441,-6,358,-116,2024-01-24 14:17:57,0.0
3549,396,1281,264,-616,659,2024-01-24 14:17:57,0.0
2823,-945,850,-21,75,158,2024-01-24 14:17:57,0.0
4147,-136,955,221,206,-144,2024-01-24 14:17:57,0.0
3708,-565,418,180,67,-73,2024-01-24 14:17:58,0.0
4384,-294,1031,349,442,-310,2024-01-24 14:17:58,0.0
4589,-222,1060,122,-222,96,2024-01-24 14:17:58,0.0
6084,-312,1945,144,-255,488,2024-01-24 14:17:58,0.0
3630,784,2590,-25,130,627,2024-01-24 14:17:58,0.0
4860,-168,836,232,-728,-63,2024-01-24 14:17:58,0.0
4352,-1289,1329,-3,735,-196,2024-01-24 14:17:58,0.0
3330,1303,708,-379,-1130,-28,2024-01-24 14:17:58,0.0
2889,-194,298,4,310,-315,2024-01-24 14:17:58,0.0
3819,-99,545,-520,-37,-93,2024-01-24 14:17:58,0.0
3870,-91,156,-520,37,-12,2024-01-24 14:17:58,0.0
4703,488,1269,-340,707,156,2024-01-24 14:17:58,0.0
6827,-104,1707,578,-348,-433,2024-01-24 14:17:58,0.0
4044,1004,2559,441,-50,-489,2024-01-24 14:17:58,0.0
3573,-491,1516,-515,-228,-132,2024-01-24 14:17:58,0.0
4270,1076,1378,-196,199,329,2024-01-24 14:17:58,0.0
2746,-231,1244,-126,-715,648,2024-01-24 14:17:58,0.0
3517,-474,787,141,522,-128,2024-01-24 14:17:58,0.0
4121,-369,1106,39,-142,98,2024-01-24 14:17:59,0.0
3800,-476,472,96,134,-220,2024-01-24 14:17:59,0.0
4602,5,988,165,30,-264,2024-01-24 14:17:59,0.0
4753,-871,739,-305,78,213,2024-01-24 14:17:59,0.0
5715,236,2828,112,-441,368,2024-01-24 14:17:59,0.0
3204,686,1203,-537,-155,560,2024-01-24 14:17:59,0.0
4591,-206,1056,33,187,-85,2024-01-24 14:17:59,0.0
4877,-584,1917,-342,620,-277,2024-01-24 14:17:59,0.0
2711,1180,517,-421,-978,-124,2024-01-24 14:17:59,0.0
3522,-497,539,-256,314,-230,2024-01-24 14:17:59,0.0
3582,55,144,-612,-303,-8,2024-01-24 14:17:59,0.0
4162,-196,212,-469,239,60,2024-01-24 14:17:59,0.0
5029,372,1177,-103,350,-136,2024-01-24 14:17:59,
6468,-236,1929,613,487,-338,2024-01-24 14:17:59,0.0
4500,719,2164,312,-692,-120,2024-01-24 14:17:59,0.0
2535,-573,1603,-334,91,-95,2024-01-24 14:17:59,0.0
4804,906,1433,-31,189,197,2024-01-24 14:17:59,0.0
2883,-480,1205,-77,-830,617,2024-01-24 14:18:00,0.0
3393,-548,844,-127,666,-167,2024-01-24 14:18:00,0.0
4139,-321,1064,-141,-231,46,2024-01-24 14:18:00,0.0
3735,-502,483,-122,156,-184,2024-01-24 14:18:00,0.0
4911,-301,1158,-78,-197,-271,2024-01-24 14:18:00,0.0
5132,-633,303,-619,-39,147,2024-01-24 14:18:00,0.0
5078,102,2855,-51,-533,487,2024-01-24 14:18:00,0.0
3663,928,1034,-693,-143,610,2024-01-24 14:18:00,0.0
4728,-724,1137,257,51,-251,2024-01-24 14:18:00,0.0
4351,-261,1373,-398,350,-242,2024-01-24 14:18:00,0.0
2736,603,309,-427,-829,-208,2024-01-24 14:18:00,0.0
3965,-288,487,-319,-208,-90,2024-01-24 14:18:00,0.0
3283,-17,-442,-382,-393,-19,2024-01-24 14:18:00,0.0
4288,-95,-155,-131,271,127,2024-01-24 14:18:00,0.0
5725,748,465,292,972,-138,2024-01-24 14:18:00,0.0
6594,-516,1817,763,-200,-78,2024-01-24 14:18:00,0.0
3389,314,1712,358,37,-131,2024-01-24 14:18:00,0.0
4348,-1045,1012,-223,-588,86,2024-01-24 14:18:00,0.0
3892,576,1087,-88,-83,657,2024-01-24 14:18:01,0.0
2684,-1104,760,-131,-245,227,2024-01-24 14:18:01,0.0
4023,-18,620,13,503,-200,2024-01-24 14:18:01,0.0
3644,-630,607,139,41,-123,2024-01-24 14:18:01,0.0
4279,-435,493,256,423,-367,2024-01-24 14:18:01,0.0
4222,-535,1055,51,-338,63,2024-01-24 14:18:01,0.0
7031,-291,1746,141,410,376,2024-01-24 14:18:01,0.0
3987,200,2794,-193,-305,693,2024-01-24 14:18:01,0.0
4319,155,468,232,-655,136,2024-01-24 14:18:01,0.0
4303,-1370,1367,-8,811,-122,2024-01-24 14:18:01,0.0
3306,864,604,-244,-960,-141,2024-01-24 14:18:01,0.0
3117,-466,307,-158,527,-323,2024-01-24 14:18:01,0.0
3635,-110,462,-728,-130,-76,2024-01-24 14:18:01,0.0
4024,181,-113,-522,200,67,2024-01-24 14:18:01,0.0
5034,-415,1075,-306,303,201,2024-01-24 14:18:01,0.0
7873,-239,2825,991,698,-602,2024-01-24 14:18:01,0.0
2740,540,1654,121,-1022,83,2024-01-24 14:18:01,0.0
4066,-1272,1072,-554,430,1,2024-01-24 14:18:02,0.0
4137,771,1679,-101,-386,451,2024-01-24 14:18:02,0.0
2479,-1238,904,-128,-591,377,2024-01-24 14:18:02,0.0
3895,-55,800,128,509,-230,2024-01-24 14:18:02,0.0
3821,-566,655,295,-137,-131,2024-01-24 14:18:02,0.0
4239,-531,827,243,346,-262,2024-01-24 14:18:02,0.0
4755,-808,1009,160,-449,-95,2024-01-24 14:18:02,0.0
6271,-576,1538,-11,-247,238,2024-01-24 14:18:02,0.0
3428,482,2083,-498,108,586,2024-01-24 14:18:02,0.0
5201,314,870,-237,-90,242,2024-01-24 14:18:02,0.0
3873,-1134,1588,38,423,-438,2024-01-24 14:18:02,0.0
3077,913,428,-520,-934,-198,2024-01-24 14:18:02,0.0
3364,-202,366,-256,506,-364,2024-01-24 14:18:02,0.0
3558,3,235,-624,-255,12,2024-01-24 14:18:02,0.0
4197,-122,110,-470,248,12,2024-01-24 14:18:02,0.0
5342,-11,1193,-233,413,-146,2024-01-24 14:18:02,0.0
6570,-134,1446,461,304,-420,2024-01-24 14:18:02,0.0
4291,1032,2401,504,-412,-180,2024-01-24 14:18:02,0.0
2547,-769,1450,-547,-415,115,2024-01-24 14:18:03,0.0
4680,604,1155,106,394,141,2024-01-24 14:18:03,0.0
3114,-480,1249,-23,-695,507,2024-01-24 14:18:03,0.0
3148,-843,771,-187,647,-179,2024-01-24 14:18:03,0.0
4286,-11,1151,176,33,-92,2024-01-24 14:18:03,0.0
3832,-551,616,284,94,-222,2024-01-24 14:18:03,0.0
4886,-33,1125,258,-37,-98,2024-01-24 14:18:03,0.0
6371,-892,958,-374,1,436,2024-01-24 14:18:03,0.0
4057,524,3328,-121,-168,582,2024-01-24 14:18:03,0.0
4252,928,681,-162,-412,346,2024-01-24 14:18:03,0.0
3869,-1269,1057,326,375,-185,2024-01-24 14:18:03,0.0
3627,882,1055,-301,-369,-222,2024-01-24 14:18:03,0.0
3118,88,528,-102,419,-341,2024-01-24 14:18:03,0.0
3675,214,528,-404,-193,-141,2024-01-24 14:18:03,0.0
4063,-207,9,-336,-59,12,2024-01-24 14:18:03,0.0
4646,386,1285,-262,598,182,2024-01-24 14:18:03,0.0
6867,-638,1221,476,-1014,-193,2024-01-24 14:18:03,0.0
4350,1120,2431,461,547,-376,2024-01-24 14:18:04,0.0
3569,-277,1796,-59,-722,-188,2024-01-24 14:18:04,0.0
3952,277,952,-110,351,339,2024-01-24 14:18:04,0.0
3098,331,1287,195,-558,492,2024-01-24 14:18:04,0.0
3318,-766,796,349,527,-66,2024-01-24 14:18:04,0.0
4230,-347,1017,260,-152,-8,2024-01-24 14:18:04,0.0
3838,-483,482,290,273,-262,2024-01-24 14:18:04,0.0
5063,30,1308,184,-57,-90,2024-01-24 14:18:04,0.0
6064,-833,938,-246,-133,354,2024-01-24 14:18:04,0.0
3747,501,2940,-190,-153,583,2024-01-24 14:18:04,0.0
4958,1330,855,-345,176,463,2024-01-24 14:18:04,0.0
4087,-1220,1540,366,-270,-65,2024-01-24 14:18:04,0.0
3288,394,681,-381,-372,-240,2024-01-24 14:18:04,0.0
2801,-117,496,-387,424,-495,2024-01-24 14:18:04,0.0
3920,236,675,-765,-95,-207,2024-01-24 14:18:04,0.0
3850,203,-73,-471,-258,15,2024-01-24 14:18:04,0.0
5001,-281,781,-241,374,122,2024-01-24 14:18:04,0.0
6747,415,1677,533,664,-392,2024-01-24 14:18:04,0.0
4504,400,2556,649,-719,-316,2024-01-24 14:18:05,0.0
2407,-612,1501,-557,-1,-139,2024-01-24 14:18:05,0.0
4914,1566,1885,-12,449,243,2024-01-24 14:18:05,0.0
2746,-75,1254,425,-1006,676,2024-01-24 14:18:05,0.0
3283,-555,750,474,582,-3,2024-01-24 14:18:05,0.0
4188,-489,884,437,-48,33,2024-01-24 14:18:05,0.0
4157,-820,497,428,42,-277,2024-01-24 14:18:05,0.0
4601,-486,1077,-17,-414,-145,2024-01-24 14:18:05,
6589,-359,1256,-369,230,266,2024-01-24 14:18:05,0.0
3584,417,2680,-409,-470,663,2024-01-24 14:18:05,0.0
4790,1085,841,-566,344,327,2024-01-24 14:18:05,0.0
4431,-1019,1649,133,-50,-225,2024-01-24 14:18:05,0.0
3554,513,923,-784,-420,-182,2024-01-24 14:18:05,0.0
3008,-33,426,-591,115,-483,2024-01-24 14:18:05,0.0
3588,105,787,-911,-188,-205,2024-01-24 14:18:05,0.0
3580,221,-49,-837,-318,27,2024-01-24 14:18:05,0.0
4597,-231,742,-493,469,128,2024-01-24 14:18:05,0.0
6535,471,438,40,112,-274,2024-01-24 14:18:06,0.0
5586,346,2476,315,178,-366,2024-01-24 14:18:06,0.0
2814,495,1444,-155,-958,-287,2024-01-24 14:18:06,0.0
4622,77,1211,-207,543,64,2024-01-24 14:18:06,0.0
3705,458,1200,88,-966,510,2024-01-24 14:18:06,0.0
2747,-644,831,-45,522,201,2024-01-24 14:18:06,0.0
4199,93,1039,329,-226,0,2024-01-24 14:18:06,0.0
3671,-718,518,268,110,35,2024-01-24 14:18:06,0.0
4634,-375,578,330,181,-243,2024-01-24 14:18:06,0.0
4120,-1757,1308,-500,63,241,2024-01-24 14:18:06,0.0
6259,1365,2023,-6,-354,139,2024-01-24 14:18:06,0.0
3034,1064,1216,-237,-475,909,2024-01-24 14:18:06,0.0
5067,-217,869,606,404,134,2024-01-24 14:18:06,0.0
4622,-670,1501,283,335,-246,2024-01-24 14:18:06,0.0
2769,718,202,109,-611,3,2024-01-24 14:18:06,0.0
3231,-430,447,88,642,-310,2024-01-24 14:18:06,0.0
3970,266,371,-248,-153,56,2024-01-24 14:18:06,0.0
3987,-366,121,-255,211,131,2024-01-24 14:18:07,0.0
5167,434,1180,-154,590,27,2024-01-24 14:18:07,0.0
6312,-688,2015,327,592,-401,2024-01-24 14:18:07,0.0
4604,1482,2397,-32,-579,-389,2024-01-24 14:18:07,0.0
1965,-757,1451,-452,-195,-23,2024-01-24 14:18:07,0.0
5391,1182,1651,-70,491,26,2024-01-24 14:18:07,0.0
3107,-556,1130,115,-1409,883,2024-01-24 14:18:07,0.0
2673,-865,723,-6,523,-18,2024-01-24 14:18:07,0.0
4284,-210,919,332,14,-112,2024-01-24 14:18:07,0.0
3758,-669,293,130,-85,-41,2024-01-24 14:18:07,0.0
4667,-291,837,238,115,-380,2024-01-24 14:18:07,0.0
5388,-873,1164,-382,427,28,2024-01-24 14:18:07,0.0
5725,88,3144,71,-529,450,2024-01-24 14:18:07,0.0
3192,983,725,-500,-283,444,2024-01-24 14:18:07,0.0
4250,-736,1089,393,297,-315,2024-01-24 14:18:07,0.0
4558,1,1735,-461,139,-268,2024-01-24 14:18:07,0.0
2326,618,333,-195,-209,-277,2024-01-24 14:18:07,0.0
3956,82,827,-174,233,-257,2024-01-24 14:18:07,0.0
3513,193,143,-323,-307,164,2024-01-24 14:18:08,0.0
4242,-578,16,-267,203,144,2024-01-24 14:18:08,0.0
5452,909,874,9,663,-50,2024-01-24 14:18:08,0.0
6076,-465,1999,706,446,-207,2024-01-24 14:18:08,0.0
4539,1039,2303,312,-645,-324,2024-01-24 14:18:08,0.0
2557,-1118,1672,-311,-407,-187,2024-01-24 14:18:08,0.0
5031,1248,1488,-148,383,240,2024-01-24 14:18:08,0.0
2857,-525,1122,35,-1243,912,2024-01-24 14:18:08,0.0
2797,-565,581,188,842,-101,2024-01-24 14:18:08,0.0
4332,-349,1005,404,-21,-105,2024-01-24 14:18:08,0.0
3853,-634,421,267,23,-181,2024-01-24 14:18:08,0.0
4823,-314,803,143,-424,-255,2024-01-24 14:18:08,0.0
6280,-370,1406,-590,958,-14,2024-01-24 14:18:08,0.0
4655,466,3599,-297,-772,915,2024-01-24 14:18:08,0.0
3647,693,205,7,-637,172,2024-01-24 14:18:08,0.0
4327,-781,1507,179,904,-282,2024-01-24 14:18:08,0.0
4065,507,1045,-340,-972,64,2024-01-24 14:18:08,0.0
2293,-28,233,-153,130,-306,2024-01-24 14:18:08,0.0
3517,175,758,-511,10,-174,2024-01-24 14:18:09,0.0
3835,215,-316,-545,-98,183,2024-01-24 14:18:09,0.0
4923,-481,965,-224,762,131,2024-01-24 14:18:09,0.0
6947,730,887,382,318,-282,2024-01-24 14:18:09,0.0
4802,450,2362,692,-277,-133,2024-01-24 14:18:09,0.0
2286,43,1333,15,-221,-77,2024-01-24 14:18:09,0.0
5134,430,1552,296,196,76,2024-01-24 14:18:09,0.0
3329,-171,1034,190,-831,737,2024-01-24 14:18:09,0.0
2692,-441,997,73,504,31,2024-01-24 14:18:09,0.0
4209,98,1032,412,-212,-65,2024-01-24 14:18:09,0.0
3640,-736,497,283,161,40,2024-01-24 14:18:09,0.0
4654,-306,660,433,226,-362,2024-01-24 14:18:09,0.0
3802,-1670,1171,-479,30,209,2024-01-24 14:18:09,0.0
6033,1435,2911,177,-336,319,2024-01-24 14:18:09,0.0
3323,724,594,-255,-609,899,2024-01-24 14:18:09,0.0
5510,-1009,1605,475,531,-357,2024-01-24 14:18:09,0.0
3673,423,935,-58,-281,-113,2024-01-24 14:18:09,0.0
3198,656,240,123,-393,104,2024-01-24 14:18:10,0.0
3264,-370,526,85,147,-136,2024-01-24 14:18:10,0.0
3895,34,142,-335,128,-188,2024-01-24 14:18:10,0.0
4540,-163,488,-361,75,133,2024-01-24 14:18:10,0.0
6012,520,-215,-181,-241,-86,2024-01-24 14:18:10,0.0
5115,-228,2790,265,1025,-397,2024-01-24 14:18:10,0.0
3553,830,2274,-134,-398,-580,2024-01-24 14:18:10,0.0
4082,-34,979,-384,-175,408,2024-01-24 14:18:10,0.0
4083,77,1080,-66,-692,519,2024-01-24 14:18:10,0.0
2916,-1045,1129,-337,231,100,2024-01-24 14:18:10,0.0
3856,746,932,-1,65,-81,2024-01-24 14:18:10,0.0
3720,-806,891,337,36,-53,2024-01-24 14:18:10,0.0
4368,12,825,395,436,-286,2024-01-24 14:18:10,0.0
4087,-1217,1258,-42,-429,153,2024-01-24 14:18:10,0.0
5957,278,1578,121,-368,415,2024-01-24 14:18:10,0.0
3906,230,1862,-107,-42,557,2024-01-24 14:18:10,0.0
4931,193,970,150,-163,126,2024-01-24 14:18:10,0.0
4318,-731,1277,208,213,-312,2024-01-24 14:18:10,0.0
3107,706,361,31,-311,-96,2024-01-24 14:18:11,0.0
3295,-284,668,70,212,-289,2024-01-24 14:18:11,0.0
3763,277,210,-201,-211,-44,2024-01-24 14:18:11,
