acceleration_x,acceleration_y,acceleration_z,gyroscope_x,gyroscope_y,gyroscope_z,timestamp,label
4426,-16,-60,-244,-111,-12,2024-01-29 16:37:57,0.0
4328,-35,-24,-184,-191,7,2024-01-29 16:37:57,0.0
4341,58,-145,-250,-187,8,2024-01-29 16:37:57,0.0
4313,-29,-143,-178,-150,7,2024-01-29 16:37:57,0.0
4372,-51,-207,-118,-85,-14,2024-01-29 16:37:57,0.0
4298,-24,-233,-119,-52,-8,2024-01-29 16:37:57,0.0
4373,-61,-239,-82,8,32,2024-01-29 16:37:57,0.0
4365,-110,-211,-41,73,35,2024-01-29 16:37:57,0.0
4355,-118,-232,48,101,42,2024-01-29 16:37:57,0.0
4290,-185,-29,67,27,62,2024-01-29 16:37:57,0.0
4351,-171,-44,108,87,34,2024-01-29 16:37:57,0.0
4339,-96,-139,13,128,28,2024-01-29 16:37:57,0.0
4331,-182,-35,51,57,84,2024-01-29 16:37:57,0.0
4346,-76,-23,57,31,76,2024-01-29 16:37:57,0.0
4290,-154,0,88,122,48,2024-01-29 16:37:57,0.0
4368,-242,118,86,131,-10,2024-01-29 16:37:58,0.0
4318,-90,46,-19,24,-5,2024-01-29 16:37:58,0.0
4356,-138,65,-48,-41,17,2024-01-29 16:37:58,0.0
4364,-151,37,-157,-35,19,2024-01-29 16:37:58,0.0
4356,-196,62,-158,-26,21,2024-01-29 16:37:58,0.0
4362,-131,51,-166,16,11,2024-01-29 16:37:58,0.0
4374,-149,64,-182,27,14,2024-01-29 16:37:58,0.0
4330,-213,83,-159,11,18,2024-01-29 16:37:58,0.0
4327,-290,123,-123,13,-1,2024-01-29 16:37:58,0.0
4352,-189,160,-41,-26,-30,2024-01-29 16:37:58,0.0
4303,-113,206,-8,-73,11,2024-01-29 16:37:58,0.0
4400,-106,236,-70,-132,-11,2024-01-29 16:37:58,0.0
4374,-259,-93,-88,-50,-7,2024-01-29 16:37:58,0.0
4322,-170,-3,-101,-50,28,2024-01-29 16:37:58,0.0
4229,-144,70,117,-35,31,2024-01-29 16:37:58,0.0
4424,-106,-88,-31,-41,7,2024-01-29 16:37:58,0.0
4398,-132,-26,64,72,26,2024-01-29 16:37:58,0.0
4271,-145,207,-14,-112,23,2024-01-29 16:37:59,0.0
4329,-146,223,-24,-86,12,2024-01-29 16:37:59,0.0
4311,-217,142,19,-155,7,2024-01-29 16:37:59,0.0
4400,-86,105,-39,-173,26,2024-01-29 16:37:59,0.0
4391,-97,-69,-30,-83,55,2024-01-29 16:37:59,0.0
4355,-172,-14,-88,43,32,2024-01-29 16:37:59,0.0
4305,-204,59,-66,54,9,2024-01-29 16:37:59,0.0
4335,-196,97,-112,10,0,2024-01-29 16:37:59,0.0
4329,-161,28,-137,39,17,2024-01-29 16:37:59,0.0
4329,-218,72,-117,63,26,2024-01-29 16:37:59,0.0
4435,-215,-10,-70,68,28,2024-01-29 16:37:59,0.0
4382,-396,-52,-72,48,-42,2024-01-29 16:37:59,0.0
4368,-153,291,-59,-27,34,2024-01-29 16:37:59,0.0
4295,-119,16,-27,-30,28,2024-01-29 16:37:59,0.0
4397,-223,142,-56,27,9,2024-01-29 16:37:59,0.0
4348,-166,50,-38,-24,-3,2024-01-29 16:37:59,0.0
4275,-157,176,-40,3,-2,2024-01-29 16:37:59,0.0
4303,-231,199,-35,-20,8,2024-01-29 16:37:59,0.0
4347,-128,26,-71,-54,-6,2024-01-29 16:38:00,0.0
4357,-147,74,-93,11,1,2024-01-29 16:38:00,0.0
4338,-193,151,-78,2,-1,2024-01-29 16:38:00,0.0
4368,-217,128,-103,33,0,2024-01-29 16:38:00,0.0
4354,-204,171,-99,-12,-11,2024-01-29 16:38:00,0.0
4333,-205,182,-79,-54,-9,2024-01-29 16:38:00,0.0
4348,-138,162,-67,-33,-10,2024-01-29 16:38:00,0.0
4297,-150,202,-96,-28,-8,2024-01-29 16:38:00,0.0
4359,-137,157,-101,-8,3,2024-01-29 16:38:00,0.0
4279,-202,206,-77,-49,10,2024-01-29 16:38:00,0.0
4359,-181,100,-47,-69,9,2024-01-29 16:38:00,0.0
4339,-142,143,-28,-106,-8,2024-01-29 16:38:00,0.0
4299,-154,62,-57,-141,7,2024-01-29 16:38:00,0.0
4432,-266,8,-8,-188,35,2024-01-29 16:38:00,0.0
4335,-225,128,35,-194,15,2024-01-29 16:38:00,0.0
4325,-138,-62,-12,-258,-17,2024-01-29 16:38:00,0.0
4281,-222,-95,17,-229,2,2024-01-29 16:38:00,0.0
4302,-125,-118,11,-209,2,2024-01-29 16:38:01,0.0
4414,-137,-223,2,-14,9,2024-01-29 16:38:01,0.0
4351,-129,-85,-16,-17,9,2024-01-29 16:38:01,0.0
4354,-195,-136,-43,21,16,2024-01-29 16:38:01,0.0
4318,-161,-146,-28,32,11,2024-01-29 16:38:01,0.0
4354,-96,-67,-46,3,0,2024-01-29 16:38:01,0.0
4292,-111,-142,-53,5,5,2024-01-29 16:38:01,0.0
4353,-155,-116,-60,7,10,2024-01-29 16:38:01,0.0
4353,-175,-111,-35,-14,5,2024-01-29 16:38:01,0.0
4320,-151,-144,2,-44,14,2024-01-29 16:38:01,0.0
4319,-169,-171,9,-234,20,2024-01-29 16:38:01,0.0
4287,-91,-193,-41,-115,93,2024-01-29 16:38:01,0.0
4458,-375,-172,-12,-64,140,2024-01-29 16:38:01,0.0
4294,-300,10,-8,-8,141,2024-01-29 16:38:01,0.0
4435,-239,-63,59,-44,92,2024-01-29 16:38:01,0.0
4353,-242,-235,-9,-57,19,2024-01-29 16:38:01,0.0
4398,-275,-239,-19,2,-24,2024-01-29 16:38:01,0.0
4331,-216,-148,-10,51,-32,2024-01-29 16:38:01,0.0
4322,-198,-152,-31,16,-52,2024-01-29 16:38:02,0.0
4331,-320,-17,-47,-84,-63,2024-01-29 16:38:02,0.0
4486,-115,-191,-84,68,-44,2024-01-29 16:38:02,0.0
4209,-335,44,-32,84,-16,2024-01-29 16:38:02,0.0
4406,-174,-109,-7,86,-15,2024-01-29 16:38:02,0.0
4324,-207,-50,9,148,-4,2024-01-29 16:38:02,0.0
4356,-227,13,23,152,9,2024-01-29 16:38:02,0.0
4304,-165,69,-25,126,23,2024-01-29 16:38:02,0.0
4298,-124,83,-28,34,26,2024-01-29 16:38:02,0.0
4405,-161,96,-12,-13,43,2024-01-29 16:38:02,0.0
4401,-364,15,30,-32,23,2024-01-29 16:38:02,0.0
4320,-45,138,-14,-62,15,2024-01-29 16:38:02,0.0
4353,-297,53,-3,-79,35,2024-01-29 16:38:02,0.0
4310,-171,97,-43,-182,-12,2024-01-29 16:38:02,0.0
4371,-199,26,-33,-103,-3,2024-01-29 16:38:02,
4278,-279,-51,-10,-107,13,2024-01-29 16:38:02,0.0
4403,-220,-1,-23,-128,-2,2024-01-29 16:38:02,0.0
4507,-113,-77,-61,-194,-1,2024-01-29 16:38:03,0.0
4168,-453,138,-28,35,-4,2024-01-29 16:38:03,0.0
4389,-34,54,1,-58,-21,2024-01-29 16:38:03,0.0
4319,-282,-161,16,-63,-16,2024-01-29 16:38:03,0.0
4276,-163,-40,0,39,-11,2024-01-29 16:38:03,0.0
4394,-180,2,-35,-76,-4,2024-01-29 16:38:03,0.0
4425,-211,-93,-43,-21,8,2024-01-29 16:38:03,0.0
4257,-125,30,-22,39,48,2024-01-29 16:38:03,0.0
4347,-334,-179,-9,45,32,2024-01-29 16:38:03,0.0
4278,-192,10,-3,25,39,2024-01-29 16:38:03,0.0
4342,-174,63,-12,-90,34,2024-01-29 16:38:03,0.0
4346,-88,-131,-70,-103,10,2024-01-29 16:38:03,0.0
4351,-273,-141,-89,-123,14,2024-01-29 16:38:03,0.0
4340,-237,-137,-63,-129,-15,2024-01-29 16:38:03,0.0
4375,-233,-93,-11,-78,-32,2024-01-29 16:38:03,0.0
4371,-82,-162,-24,8,-2,2024-01-29 16:38:03,0.0
4278,-246,-149,-30,16,-2,2024-01-29 16:38:03,0.0
4329,-132,-152,-21,-12,0,2024-01-29 16:38:03,0.0
4338,-195,-70,2,-96,-19,2024-01-29 16:38:04,0.0
4338,-166,-156,16,-62,-9,2024-01-29 16:38:04,0.0
4338,-130,-114,-26,-91,-1,2024-01-29 16:38:04,0.0
4229,-137,-122,-44,-34,24,2024-01-29 16:38:04,0.0
4498,-367,-163,-15,7,37,2024-01-29 16:38:04,0.0
4239,-78,1,-30,18,18,2024-01-29 16:38:04,0.0
4388,-225,-65,-24,1,10,2024-01-29 16:38:04,0.0
4304,-208,-57,-32,1,-8,2024-01-29 16:38:04,0.0
4274,-174,-88,-47,-36,-31,2024-01-29 16:38:04,0.0
4350,-103,-63,-93,-36,-38,2024-01-29 16:38:04,0.0
4359,-40,-151,-161,-35,-21,2024-01-29 16:38:04,0.0
4313,-89,-93,-256,-11,-4,2024-01-29 16:38:04,0.0
4385,-138,-142,-298,3,-1,2024-01-29 16:38:04,0.0
4353,-169,-127,-269,1,2,2024-01-29 16:38:04,0.0
4383,-177,-49,-246,23,8,2024-01-29 16:38:04,0.0
4358,-177,-92,-222,-42,-3,2024-01-29 16:38:04,0.0
4342,-128,-53,-216,-55,1,2024-01-29 16:38:04,0.0
4282,-149,-57,-201,-56,8,2024-01-29 16:38:05,0.0
4281,-88,-139,-177,-117,44,2024-01-29 16:38:05,0.0
4445,-328,-289,-120,-85,50,2024-01-29 16:38:05,0.0
4244,-38,-85,-129,-121,31,2024-01-29 16:38:05,0.0
4379,-200,-241,-131,-113,26,2024-01-29 16:38:05,0.0
4373,-193,-238,-138,-108,16,2024-01-29 16:38:05,0.0
4331,-169,-201,-93,-75,16,2024-01-29 16:38:05,0.0
4309,-164,-260,-80,-110,2,2024-01-29 16:38:05,0.0
4360,-152,-350,-90,-126,-11,2024-01-29 16:38:05,0.0
4324,-225,-236,-58,-120,6,2024-01-29 16:38:05,0.0
4366,-185,-279,-25,-96,-6,2024-01-29 16:38:05,0.0
4328,-203,-314,20,-68,-13,2024-01-29 16:38:05,0.0
4268,-106,-313,36,-112,-38,2024-01-29 16:38:05,0.0
4412,-222,-547,57,-119,-9,2024-01-29 16:38:05,0.0
4245,-26,-409,74,-53,-8,2024-01-29 16:38:05,0.0
4349,-212,-310,46,-3,18,2024-01-29 16:38:05,0.0
4369,-279,-429,100,-30,27,2024-01-29 16:38:05,0.0
4274,-82,-345,117,40,11,2024-01-29 16:38:05,0.0
4375,-161,-221,67,39,6,2024-01-29 16:38:06,0.0
4331,-207,-291,41,54,0,2024-01-29 16:38:06,0.0
4333,-169,-376,29,-8,15,2024-01-29 16:38:06,0.0
4383,-190,-312,34,42,24,2024-01-29 16:38:06,0.0
4279,-154,-208,49,3,22,2024-01-29 16:38:06,0.0
4322,-242,-239,40,-4,24,2024-01-29 16:38:06,0.0
4348,-153,-237,78,3,7,2024-01-29 16:38:06,0.0
4240,-152,-212,95,-26,-2,2024-01-29 16:38:06,0.0
4466,-165,-439,96,-38,12,2024-01-29 16:38:06,0.0
4321,-25,-168,26,-3,2,2024-01-29 16:38:06,0.0
4399,-223,-221,-33,-9,10,2024-01-29 16:38:06,0.0
4304,-162,-199,19,27,10,2024-01-29 16:38:06,0.0
4357,-98,-207,-3,25,12,2024-01-29 16:38:06,0.0
4318,-107,-155,-48,29,12,2024-01-29 16:38:06,0.0
4299,-169,-137,-65,-6,9,2024-01-29 16:38:06,0.0
4339,-179,-146,-65,-38,7,2024-01-29 16:38:06,0.0
4294,-150,-221,-78,-48,10,2024-01-29 16:38:06,0.0
4363,-169,-225,-87,-9,3,2024-01-29 16:38:07,0.0
4345,-208,-218,-69,-28,3,2024-01-29 16:38:07,0.0
4306,-191,-214,-54,-40,10,2024-01-29 16:38:07,0.0
4307,-138,-275,-73,-44,6,2024-01-29 16:38:07,0.0
4336,-131,-264,-141,-56,-5,2024-01-29 16:38:07,0.0
4347,-213,-264,-125,-41,12,2024-01-29 16:38:07,0.0
4347,-248,-204,-115,-20,19,2024-01-29 16:38:07,0.0
4365,-220,-244,-123,-17,18,2024-01-29 16:38:07,0.0
4371,-242,-275,-76,8,13,2024-01-29 16:38:07,0.0
4300,-226,-244,-69,-47,16,2024-01-29 16:38:07,0.0
4330,-230,-301,-52,-24,14,2024-01-29 16:38:07,0.0
4302,-200,-279,-63,-53,3,2024-01-29 16:38:07,0.0
4231,-52,-180,-144,-61,-16,2024-01-29 16:38:07,0.0
4442,-101,-198,-211,-94,-18,2024-01-29 16:38:07,0.0
4285,-161,-121,-175,-39,-5,2024-01-29 16:38:07,0.0
4309,-117,-115,-193,-67,-11,2024-01-29 16:38:07,0.0
4389,-200,-108,-61,-17,1,2024-01-29 16:38:07,0.0
4329,208,84,-143,23,-35,2024-01-29 16:38:07,0.0
4278,-176,39,-151,-5,-3,2024-01-29 16:38:08,0.0
4227,-231,55,-42,16,71,2024-01-29 16:38:08,0.0
4249,-2,170,-38,-128,3,2024-01-29 16:38:08,0.0
4305,-154,155,-39,-113,38,2024-01-29 16:38:08,0.0
4117,-101,287,-34,-170,53,2024-01-29 16:38:08,0.0
3865,18,175,-115,-122,96,2024-01-29 16:38:08,0.0
3633,-341,233,-64,-215,97,2024-01-29 16:38:08,0.0
3111,-274,424,-58,-400,-15,2024-01-29 16:38:08,0.0
4240,252,194,-297,23,19,2024-01-29 16:38:08,0.0
3852,-47,187,-535,-597,-9,2024-01-29 16:38:08,
3943,-740,-457,-434,-698,141,2024-01-29 16:38:08,0.0
3363,-476,765,126,-787,-19,2024-01-29 16:38:08,0.0
1931,352,-917,-171,-406,-88,2024-01-29 16:38:08,0.0
1466,-518,-785,-162,-1735,-384,2024-01-29 16:38:08,0.0
1417,-198,-714,167,-2984,-472,2024-01-29 16:38:08,0.0
4922,-560,-1800,599,-3189,-263,2024-01-29 16:38:08,0.0
5362,105,-7537,698,-3954,-486,2024-01-29 16:38:08,0.0
8196,-347,-5897,448,-3678,9,2024-01-29 16:38:09,0.0
1544,572,-683,-225,-2705,-42,2024-01-29 16:38:09,0.0
-766,-805,-1933,-210,-619,194,2024-01-29 16:38:09,0.0
-948,-346,-1166,-361,-2446,127,2024-01-29 16:38:09,0.0
-1596,-391,-9237,-66,-78,-53,2024-01-29 16:38:09,0.0
-115,355,-13135,455,4199,-123,2024-01-29 16:38:09,0.0
-6056,-84,-8992,-163,-235,313,2024-01-29 16:38:09,0.0
-837,213,-3688,-424,-960,-2,2024-01-29 16:38:09,0.0
130,-368,-3391,-176,-301,-122,2024-01-29 16:38:09,0.0
400,81,-2857,-2,-83,-100,2024-01-29 16:38:09,0.0
264,-373,-3520,-66,286,16,2024-01-29 16:38:09,0.0
355,138,-4756,115,490,-57,2024-01-29 16:38:09,0.0
844,279,-5168,-60,199,-56,2024-01-29 16:38:09,0.0
508,-163,-4728,5,29,-76,2024-01-29 16:38:09,0.0
888,44,-4159,51,-93,-21,2024-01-29 16:38:09,0.0
780,60,-3825,-25,3,-31,2024-01-29 16:38:09,0.0
600,103,-4032,-70,-10,-10,2024-01-29 16:38:09,0.0
603,9,-4248,12,-71,-20,2024-01-29 16:38:09,0.0
617,-5,-4139,34,-19,-18,2024-01-29 16:38:10,0.0
696,-66,-4176,-84,-11,9,2024-01-29 16:38:10,0.0
683,-9,-4208,-21,-20,-6,2024-01-29 16:38:10,0.0
572,-105,-4162,4,-56,-2,2024-01-29 16:38:10,0.0
611,-44,-4240,-44,-64,4,2024-01-29 16:38:10,0.0
567,-22,-4165,-92,-57,14,2024-01-29 16:38:10,0.0
581,-63,-4175,-45,-137,-12,2024-01-29 16:38:10,0.0
591,-41,-4232,-50,-130,8,2024-01-29 16:38:10,0.0
553,-33,-4236,-32,-146,8,2024-01-29 16:38:10,0.0
474,-26,-4302,-43,-75,20,2024-01-29 16:38:10,0.0
520,-47,-4222,-66,-28,21,2024-01-29 16:38:10,0.0
496,-51,-4170,-60,-4,6,2024-01-29 16:38:10,0.0
508,8,-4154,-74,-21,6,2024-01-29 16:38:10,0.0
500,15,-4214,-70,-12,16,2024-01-29 16:38:10,0.0
537,49,-4145,-43,-56,14,2024-01-29 16:38:10,0.0
491,-14,-4183,-65,-76,13,2024-01-29 16:38:10,0.0
498,16,-4207,-79,-43,9,2024-01-29 16:38:10,0.0
493,2,-4240,-83,3,14,2024-01-29 16:38:11,0.0
489,10,-4216,-58,-22,6,2024-01-29 16:38:11,0.0
526,50,-4136,-53,-39,10,2024-01-29 16:38:11,0.0
497,15,-4167,-55,-17,12,2024-01-29 16:38:11,0.0
548,8,-4214,-39,-17,6,2024-01-29 16:38:11,0.0
504,58,-4217,-43,21,9,2024-01-29 16:38:11,0.0
495,24,-4177,-35,27,10,2024-01-29 16:38:11,0.0
481,63,-4202,-56,-49,9,2024-01-29 16:38:11,0.0
515,-21,-4140,-49,35,17,2024-01-29 16:38:11,0.0
620,72,-4216,-57,0,18,2024-01-29 16:38:11,0.0
556,12,-4192,-61,4,14,2024-01-29 16:38:11,0.0
553,74,-4234,-55,-16,12,2024-01-29 16:38:11,0.0
534,90,-4215,-52,-25,5,2024-01-29 16:38:11,0.0
559,29,-4100,-14,-53,2,2024-01-29 16:38:11,0.0
545,79,-4186,-62,-13,8,2024-01-29 16:38:11,0.0
596,38,-4260,-30,-2,11,2024-01-29 16:38:11,0.0
626,90,-4203,-80,-10,24,2024-01-29 16:38:11,0.0
530,96,-4160,-53,-109,13,2024-01-29 16:38:11,0.0
542,57,-4180,-63,-105,11,2024-01-29 16:38:12,0.0
524,119,-4290,-46,6,16,2024-01-29 16:38:12,0.0
570,148,-4270,-48,-48,6,2024-01-29 16:38:12,0.0
490,66,-4127,-81,-26,24,2024-01-29 16:38:12,0.0
512,58,-4174,-50,-19,25,2024-01-29 16:38:12,0.0
557,113,-4158,-50,-32,21,2024-01-29 16:38:12,0.0
519,76,-4208,-72,-36,23,2024-01-29 16:38:12,0.0
497,90,-4308,-31,-26,8,2024-01-29 16:38:12,0.0
535,142,-4220,-35,-28,9,2024-01-29 16:38:12,0.0
545,115,-4166,-22,-43,2,2024-01-29 16:38:12,0.0
529,186,-4169,-40,-31,17,2024-01-29 16:38:12,0.0
481,135,-4225,-48,-56,19,2024-01-29 16:38:12,0.0
537,130,-4175,-43,-12,9,2024-01-29 16:38:12,0.0
613,105,-4069,-30,-38,4,2024-01-29 16:38:12,0.0
519,108,-4152,-37,-7,16,2024-01-29 16:38:12,0.0
496,131,-4181,-53,-29,10,2024-01-29 16:38:12,0.0
428,127,-4405,6,115,0,2024-01-29 16:38:12,0.0
709,128,-4055,-43,-54,9,2024-01-29 16:38:13,0.0
504,64,-4271,-32,62,11,2024-01-29 16:38:13,0.0
662,128,-4084,-40,19,16,2024-01-29 16:38:13,0.0
670,97,-4138,-53,-3,16,2024-01-29 16:38:13,0.0
575,99,-4153,-45,-37,11,2024-01-29 16:38:13,0.0
554,90,-4247,-28,-15,10,2024-01-29 16:38:13,0.0
585,93,-4264,-47,-14,12,2024-01-29 16:38:13,0.0
623,63,-4172,-37,-17,8,2024-01-29 16:38:13,0.0
618,134,-4122,-38,-2,8,2024-01-29 16:38:13,0.0
626,96,-4143,-27,-20,5,2024-01-29 16:38:13,0.0
603,123,-4196,-28,-35,4,2024-01-29 16:38:13,0.0
626,77,-4164,-20,-47,-4,2024-01-29 16:38:13,0.0
594,110,-4222,-20,-11,-7,2024-01-29 16:38:13,0.0
600,54,-4182,-24,-43,4,2024-01-29 16:38:13,0.0
606,101,-4153,-42,-46,10,2024-01-29 16:38:13,0.0
581,77,-4168,-35,-20,5,2024-01-29 16:38:13,0.0
565,109,-4195,-36,-10,11,2024-01-29 16:38:13,0.0
603,90,-4228,-36,-23,8,2024-01-29 16:38:13,0.0
607,78,-4162,-53,-31,14,2024-01-29 16:38:14,0.0
595,84,-4137,-30,-57,6,2024-01-29 16:38:14,0.0
581,64,-4166,-11,-37,-8,2024-01-29 16:38:14,0.0
589,84,-4220,-30,-31,4,2024-01-29 16:38:14,0.0
614,93,-4254,-45,-7,13,2024-01-29 16:38:14,
625,57,-4127,-37,-20,13,2024-01-29 16:38:14,0.0
594,64,-4167,-42,-32,7,2024-01-29 16:38:14,0.0
615,84,-4188,-49,-43,10,2024-01-29 16:38:14,0.0
591,88,-4211,-46,-45,13,2024-01-29 16:38:14,0.0
623,101,-4172,-43,-53,12,2024-01-29 16:38:14,0.0
581,101,-4153,-59,-61,15,2024-01-29 16:38:14,0.0
583,133,-4179,-53,-108,12,2024-01-29 16:38:14,0.0
552,77,-4240,-46,-112,17,2024-01-29 16:38:14,0.0
538,63,-4253,-53,-64,13,2024-01-29 16:38:14,0.0
500,76,-4209,-50,-39,11,2024-01-29 16:38:14,0.0
539,85,-4230,-26,-44,3,2024-01-29 16:38:14,0.0
599,137,-4148,-28,-32,15,2024-01-29 16:38:14,0.0
583,68,-4159,-29,-60,15,2024-01-29 16:38:15,0.0
483,115,-4242,-25,-44,4,2024-01-29 16:38:15,0.0
518,148,-4202,-37,-13,13,2024-01-29 16:38:15,0.0
513,77,-4244,-69,-35,16,2024-01-29 16:38:15,0.0
527,46,-4143,-37,-26,8,2024-01-29 16:38:15,0.0
520,86,-4163,-10,-23,1,2024-01-29 16:38:15,0.0
519,107,-4161,-37,-38,10,2024-01-29 16:38:15,0.0
497,50,-4205,-39,-28,6,2024-01-29 16:38:15,0.0
523,68,-4165,-31,-15,11,2024-01-29 16:38:15,0.0
516,152,-4150,-33,-15,7,2024-01-29 16:38:15,0.0
524,79,-4170,-33,-38,6,2024-01-29 16:38:15,0.0
521,88,-4208,-40,-14,13,2024-01-29 16:38:15,0.0
519,117,-4182,-30,-21,5,2024-01-29 16:38:15,0.0
511,60,-4233,-38,5,9,2024-01-29 16:38:15,0.0
510,48,-4231,-52,28,6,2024-01-29 16:38:15,0.0
549,80,-4103,-71,1,6,2024-01-29 16:38:15,0.0
531,122,-4243,-38,34,16,2024-01-29 16:38:15,0.0
592,114,-4147,-56,-15,15,2024-01-29 16:38:15,0.0
568,114,-4186,-54,-6,17,2024-01-29 16:38:16,0.0
546,116,-4302,-78,8,25,2024-01-29 16:38:16,0.0
572,124,-4141,-51,-52,13,2024-01-29 16:38:16,0.0
656,102,-4072,-61,-61,7,2024-01-29 16:38:16,0.0
523,47,-4175,-44,17,18,2024-01-29 16:38:16,0.0
536,157,-4134,-44,-48,16,2024-01-29 16:38:16,0.0
637,141,-4146,-59,-73,19,2024-01-29 16:38:16,0.0
557,150,-4221,-41,-49,3,2024-01-29 16:38:16,0.0
556,158,-4189,-40,-51,4,2024-01-29 16:38:16,0.0
537,166,-4206,-72,-65,17,2024-01-29 16:38:16,0.0
519,200,-4241,-11,-25,1,2024-01-29 16:38:16,0.0
552,114,-4187,-65,-14,23,2024-01-29 16:38:16,0.0
559,152,-4222,-47,-11,9,2024-01-29 16:38:16,0.0
560,129,-4154,-46,-27,15,2024-01-29 16:38:16,0.0
526,103,-4182,-33,-16,1,2024-01-29 16:38:16,0.0
537,135,-4168,-41,-40,11,2024-01-29 16:38:16,0.0
544,124,-4242,-34,-53,6,2024-01-29 16:38:16,0.0
553,142,-4190,-34,-55,6,2024-01-29 16:38:17,0.0
550,145,-4194,-44,-41,16,2024-01-29 16:38:17,0.0
521,120,-4189,-39,-52,6,2024-01-29 16:38:17,0.0
480,140,-4243,-36,-27,8,2024-01-29 16:38:17,0.0
516,147,-4158,-44,-24,9,2024-01-29 16:38:17,0.0
506,129,-4267,-32,-22,9,2024-01-29 16:38:17,0.0
547,152,-4118,-25,-26,8,2024-01-29 16:38:17,0.0
569,110,-4191,-26,-5,4,2024-01-29 16:38:17,0.0
502,123,-4204,-34,-20,10,2024-01-29 16:38:17,0.0
519,119,-4177,-40,-26,9,2024-01-29 16:38:17,0.0
527,135,-4192,-31,-3,6,2024-01-29 16:38:17,0.0
556,123,-4150,-32,-24,10,2024-01-29 16:38:17,0.0
513,119,-4155,-27,-68,3,2024-01-29 16:38:17,0.0
477,124,-4196,-17,-72,-1,2024-01-29 16:38:17,0.0
510,119,-4202,-31,-63,2,2024-01-29 16:38:17,0.0
472,146,-4202,-50,-7,12,2024-01-29 16:38:17,0.0
513,111,-4161,-56,-6,15,2024-01-29 16:38:17,0.0
515,124,-4175,-30,-82,5,2024-01-29 16:38:18,0.0
482,103,-4204,-17,-100,0,2024-01-29 16:38:18,0.0
446,124,-4249,-29,-70,9,2024-01-29 16:38:18,0.0
431,100,-4226,-46,-21,6,2024-01-29 16:38:18,0.0
446,114,-4157,-52,-10,9,2024-01-29 16:38:18,0.0
466,88,-4148,-31,-39,2,2024-01-29 16:38:18,0.0
429,116,-4200,-53,-32,11,2024-01-29 16:38:18,0.0
467,115,-4255,-41,-18,10,2024-01-29 16:38:18,0.0
481,100,-4211,-52,4,17,2024-01-29 16:38:18,0.0
472,96,-4113,-46,21,9,2024-01-29 16:38:18,0.0
521,130,-4189,-48,-10,2,2024-01-29 16:38:18,0.0
490,117,-4198,-22,-48,2,2024-01-29 16:38:18,0.0
465,120,-4196,-33,-33,7,2024-01-29 16:38:18,0.0
486,107,-4133,-34,-36,9,2024-01-29 16:38:18,0.0
476,126,-4292,-57,19,13,2024-01-29 16:38:18,0.0
483,87,-4150,-80,52,23,2024-01-29 16:38:18,0.0
519,123,-4113,-29,-12,5,2024-01-29 16:38:18,0.0
502,154,-4164,-50,-38,6,2024-01-29 16:38:18,0.0
522,123,-4150,-40,-49,8,2024-01-29 16:38:19,0.0
517,87,-4264,11,24,2,2024-01-29 16:38:19,0.0
493,130,-4217,-12,-2,8,2024-01-29 16:38:19,0.0
541,107,-4169,-25,-17,6,2024-01-29 16:38:19,0.0
558,132,-4142,-40,-20,13,2024-01-29 16:38:19,0.0
550,133,-4205,-61,-28,5,2024-01-29 16:38:19,0.0
514,136,-4153,-68,-68,6,2024-01-29 16:38:19,0.0
508,128,-4222,-52,-61,12,2024-01-29 16:38:19,0.0
496,141,-4205,-32,-13,17,2024-01-29 16:38:19,0.0
543,162,-4230,-47,64,28,2024-01-29 16:38:19,0.0
324,220,-4513,-13,93,39,2024-01-29 16:38:19,0.0
74,582,-4814,230,-101,2,2024-01-29 16:38:20,0.0
-66,856,-4849,0,-508,-72,2024-01-29 16:38:21,0.0
-101,749,-4167,66,-767,-227,2024-01-29 16:38:21,0.0
-332,405,-3957,169,-679,-435,2024-01-29 16:38:21,0.0
-189,-693,-4826,113,-201,-532,2024-01-29 16:38:21,0.0
-734,-1533,-4623,803,-428,-633,2024-01-29 16:38:21,0.0
400,-1218,-4313,1195,-341,-339,2024-01-29 16:38:21,
-121,-1291,-3973,1028,67,-393,2024-01-29 16:38:21,0.0
-349,-1796,-4354,842,-75,-209,2024-01-29 16:38:21,0.0
-374,-1710,-4189,515,-480,19,2024-01-29 16:38:21,0.0
2226,1041,-3456,137,1388,-281,2024-01-29 16:38:21,0.0
2169,149,-3718,-124,1206,-244,2024-01-29 16:38:21,0.0
3548,362,-3073,-3,1257,-172,2024-01-29 16:38:21,0.0
3601,98,-3432,-91,1168,-29,2024-01-29 16:38:21,0.0
4042,280,-3116,-349,1499,65,2024-01-29 16:38:21,0.0
3116,349,-2193,-480,742,114,2024-01-29 16:38:21,0.0
3179,46,-2532,-243,96,92,2024-01-29 16:38:21,0.0
4545,-27,-3454,-47,-907,-163,2024-01-29 16:38:21,0.0
4394,-63,-4107,331,-1722,-273,2024-01-29 16:38:21,0.0
3702,224,-2943,274,-1658,-69,2024-01-29 16:38:21,0.0
2985,-266,-3231,403,-1356,-62,2024-01-29 16:38:21,0.0
3536,350,-3189,160,-791,-197,2024-01-29 16:38:21,0.0
3214,-62,-3797,17,-331,-127,2024-01-29 16:38:22,0.0
3310,-33,-3986,21,248,-94,2024-01-29 16:38:22,0.0
3421,-103,-4014,-138,708,9,2024-01-29 16:38:22,0.0
3537,-64,-3846,-69,961,9,2024-01-29 16:38:22,0.0
3413,209,-3138,-134,1242,153,2024-01-29 16:38:22,0.0
2999,-50,-2294,-333,1272,137,2024-01-29 16:38:22,0.0
2291,-120,-2086,24,1015,118,2024-01-29 16:38:22,0.0
2726,-198,-1841,-42,1007,176,2024-01-29 16:38:22,0.0
2882,-305,-1398,-73,1169,118,2024-01-29 16:38:22,0.0
2661,-188,-1466,80,1184,90,2024-01-29 16:38:22,0.0
2158,181,-1488,89,912,94,2024-01-29 16:38:22,0.0
3409,72,-1476,-5,552,-10,2024-01-29 16:38:22,0.0
4366,-312,-1447,362,451,-49,2024-01-29 16:38:22,0.0
4641,18,-695,667,611,-132,2024-01-29 16:38:22,0.0
4461,137,-950,617,542,-183,2024-01-29 16:38:22,0.0
4182,-52,-796,399,581,-173,2024-01-29 16:38:22,0.0
3507,235,-386,-32,226,-36,2024-01-29 16:38:22,0.0
4287,133,-646,-147,262,88,2024-01-29 16:38:22,0.0
4608,-67,-1867,-215,-116,10,2024-01-29 16:38:23,0.0
3855,-164,-999,-448,209,-24,2024-01-29 16:38:23,0.0
4422,-150,-122,-407,198,76,2024-01-29 16:38:23,0.0
4397,-117,-481,-46,244,19,2024-01-29 16:38:23,0.0
4177,-322,-872,-67,32,-21,2024-01-29 16:38:23,0.0
4239,-172,-625,-57,70,13,2024-01-29 16:38:23,0.0
4336,-119,-834,-54,318,14,2024-01-29 16:38:23,0.0
4488,-19,-485,-62,129,22,2024-01-29 16:38:23,0.0
4295,-11,-619,-100,180,59,2024-01-29 16:38:23,0.0
4307,-43,-197,-62,187,111,2024-01-29 16:38:23,0.0
4453,-47,-326,-25,354,94,2024-01-29 16:38:23,0.0
4366,-213,81,-170,299,103,2024-01-29 16:38:23,0.0
4496,-143,43,-130,607,38,2024-01-29 16:38:23,0.0
4107,-203,-3,-46,526,-13,2024-01-29 16:38:23,0.0
4344,-180,153,-93,327,-14,2024-01-29 16:38:23,0.0
4291,-208,167,-12,37,-17,2024-01-29 16:38:23,0.0
4334,-165,205,-21,2,-22,2024-01-29 16:38:23,0.0
4291,-82,146,-48,12,-21,2024-01-29 16:38:24,0.0
4291,-176,313,-55,-13,-8,2024-01-29 16:38:24,0.0
4339,-120,172,-38,-3,-10,2024-01-29 16:38:24,0.0
4251,-154,324,-60,-56,-18,2024-01-29 16:38:24,0.0
4243,-185,289,-95,-129,-31,2024-01-29 16:38:24,0.0
4239,-50,257,-80,-164,-63,2024-01-29 16:38:24,0.0
4353,-100,208,-87,-155,-86,2024-01-29 16:38:24,0.0
4362,-81,364,-105,-290,-61,2024-01-29 16:38:24,0.0
4377,-117,228,-101,-299,-35,2024-01-29 16:38:24,0.0
4293,18,165,-63,-210,4,2024-01-29 16:38:24,0.0
4461,12,-6,-65,-168,52,2024-01-29 16:38:24,0.0
4342,-49,-31,-25,-224,29,2024-01-29 16:38:24,0.0
4333,-52,-148,2,-153,0,2024-01-29 16:38:24,0.0
4389,-104,-121,-24,-165,17,2024-01-29 16:38:24,0.0
4397,-27,-205,27,-45,42,2024-01-29 16:38:24,0.0
4414,-208,-104,43,-142,-9,2024-01-29 16:38:24,0.0
4334,-149,-182,88,-96,22,2024-01-29 16:38:24,0.0
4387,-17,-258,37,-86,39,2024-01-29 16:38:24,0.0
4376,-21,-136,-56,-149,44,2024-01-29 16:38:25,0.0
4299,-77,-201,-138,-119,31,2024-01-29 16:38:25,0.0
4418,-84,-282,-117,-122,-16,2024-01-29 16:38:25,0.0
4372,-131,-291,-92,-89,-4,2024-01-29 16:38:25,0.0
4309,-31,-345,-117,-63,32,2024-01-29 16:38:25,0.0
4377,-144,-230,-97,-30,25,2024-01-29 16:38:25,0.0
4322,-121,-199,-102,-4,19,2024-01-29 16:38:25,0.0
4388,-67,-361,-87,-20,7,2024-01-29 16:38:25,0.0
4344,-163,-276,-112,-18,3,2024-01-29 16:38:25,0.0
4287,-165,-277,-93,-3,7,2024-01-29 16:38:25,0.0
4321,-119,-231,-71,20,9,2024-01-29 16:38:25,0.0
4331,-114,-294,-53,-2,12,2024-01-29 16:38:25,0.0
4311,-139,-264,-33,1,8,2024-01-29 16:38:25,0.0
4325,-94,-256,-37,-11,11,2024-01-29 16:38:25,0.0
4358,-79,-253,-22,-33,4,2024-01-29 16:38:25,0.0
4319,-99,-278,-28,7,2,2024-01-29 16:38:25,0.0
4278,-76,-288,-21,22,4,2024-01-29 16:38:25,0.0
4322,-49,-224,-50,-1,1,2024-01-29 16:38:26,0.0
4334,-64,-204,-63,-31,7,2024-01-29 16:38:26,0.0
4313,-86,-193,-61,-34,9,2024-01-29 16:38:26,0.0
4338,-63,-198,-54,-20,13,2024-01-29 16:38:26,0.0
4344,-86,-194,-40,-38,15,2024-01-29 16:38:26,0.0
4335,-70,-190,-20,-22,17,2024-01-29 16:38:26,0.0
4346,-81,-204,-24,-73,4,2024-01-29 16:38:26,0.0
4350,-109,-204,-36,-51,1,2024-01-29 16:38:26,0.0
4398,-73,-225,-28,-9,6,2024-01-29 16:38:26,0.0
4366,-54,-145,-43,6,7,2024-01-29 16:38:26,0.0
4390,-42,-106,-38,32,20,2024-01-29 16:38:26,0.0
4295,-141,-143,-42,62,31,2024-01-29 16:38:26,0.0
4382,-91,-89,-28,81,42,2024-01-29 16:38:26,0.0
4295,-141,-192,-51,279,62,2024-01-29 16:38:26,0.0
4417,-83,-37,-17,285,31,2024-01-29 16:38:26,
4186,-166,-67,-44,86,33,2024-01-29 16:38:26,0.0
4454,-118,139,-39,85,24,2024-01-29 16:38:26,0.0
4217,-127,36,-70,85,26,2024-01-29 16:38:26,0.0
4405,-196,130,-37,9,20,2024-01-29 16:38:27,0.0
4266,-117,-30,-37,-39,21,2024-01-29 16:38:27,0.0
4384,-157,109,-37,-35,17,2024-01-29 16:38:27,0.0
4324,-145,141,-35,-28,8,2024-01-29 16:38:27,0.0
4361,-145,146,-30,-56,9,2024-01-29 16:38:27,0.0
4308,-146,64,-31,-80,4,2024-01-29 16:38:27,0.0
4346,-156,14,-26,-86,-1,2024-01-29 16:38:27,0.0
4374,-147,76,-32,-95,-2,2024-01-29 16:38:27,0.0
4323,-158,110,-31,-37,-3,2024-01-29 16:38:27,0.0
4322,-134,45,-41,-61,-3,2024-01-29 16:38:27,0.0
4326,-125,98,-33,-32,-3,2024-01-29 16:38:27,0.0
4339,-141,58,-40,-57,2,2024-01-29 16:38:27,0.0
4382,-136,0,-28,-69,0,2024-01-29 16:38:27,0.0
4322,-119,3,-38,-73,3,2024-01-29 16:38:27,0.0
4352,-86,13,-29,-63,-3,2024-01-29 16:38:27,0.0
4311,-92,29,-31,-112,-4,2024-01-29 16:38:27,0.0
4315,-149,-28,-33,-130,-5,2024-01-29 16:38:27,0.0
4339,-107,-24,-34,-124,-6,2024-01-29 16:38:28,0.0
4308,-40,-119,-35,-95,-1,2024-01-29 16:38:28,0.0
4355,-77,-141,-33,-75,1,2024-01-29 16:38:28,0.0
4336,-123,-87,-44,-92,3,2024-01-29 16:38:28,0.0
4373,-112,-126,-47,-74,3,2024-01-29 16:38:28,0.0
4322,-104,-87,-73,-73,6,2024-01-29 16:38:28,0.0
4335,-132,-126,-65,-97,1,2024-01-29 16:38:28,0.0
4384,-120,-117,-59,-52,6,2024-01-29 16:38:28,0.0
4313,-120,-111,-65,-26,12,2024-01-29 16:38:28,0.0
4331,-185,-133,-45,62,23,2024-01-29 16:38:28,0.0
4327,-91,-119,-37,2,16,2024-01-29 16:38:28,0.0
4332,-96,-218,-4,-12,12,2024-01-29 16:38:28,0.0
4334,-147,-130,-18,-63,12,2024-01-29 16:38:28,0.0
4339,-107,-156,-13,-62,11,2024-01-29 16:38:28,0.0
4362,-161,-154,-35,-3,12,2024-01-29 16:38:28,0.0
4363,-103,-148,-23,36,23,2024-01-29 16:38:28,0.0
4330,-98,-82,-24,-17,9,2024-01-29 16:38:28,0.0
4363,-117,-57,-27,-48,8,2024-01-29 16:38:28,0.0
4332,-122,-105,-39,-28,7,2024-01-29 16:38:29,0.0
4327,-113,-99,-29,-64,5,2024-01-29 16:38:29,0.0
4317,-92,-126,-35,-20,8,2024-01-29 16:38:29,0.0
4330,-130,-111,-49,-42,8,2024-01-29 16:38:29,0.0
4356,-131,-100,-46,-36,9,2024-01-29 16:38:29,0.0
4304,-96,-106,-47,-35,3,2024-01-29 16:38:29,0.0
4355,-119,-113,-55,-21,2,2024-01-29 16:38:29,0.0
4337,-114,-74,-43,-16,2,2024-01-29 16:38:29,0.0
4385,-81,-139,-53,-16,3,2024-01-29 16:38:29,0.0
4369,-122,-20,-54,-11,0,2024-01-29 16:38:29,0.0
4359,-125,-84,-60,-25,1,2024-01-29 16:38:29,0.0
4320,-109,-145,-48,-22,3,2024-01-29 16:38:29,0.0
4354,-85,-69,-58,-43,6,2024-01-29 16:38:29,0.0
4339,-116,-119,-48,-67,0,2024-01-29 16:38:29,0.0
4349,-92,-90,-54,-59,0,2024-01-29 16:38:29,0.0
4327,-110,-133,-49,-66,3,2024-01-29 16:38:29,0.0
4332,-83,-174,-40,-60,9,2024-01-29 16:38:29,0.0
4402,-90,-167,-35,-40,13,2024-01-29 16:38:30,0.0
4365,-106,-223,-36,-50,12,2024-01-29 16:38:30,0.0
4343,-90,-158,-29,-60,8,2024-01-29 16:38:30,0.0
4350,-94,-198,-26,-61,1,2024-01-29 16:38:30,0.0
4314,-51,-164,-39,-79,10,2024-01-29 16:38:30,0.0
4337,-104,-201,-24,-77,13,2024-01-29 16:38:30,0.0
4331,-117,-187,-27,-82,9,2024-01-29 16:38:30,0.0
4339,-85,-226,-28,-69,6,2024-01-29 16:38:30,0.0
4326,-84,-233,-17,-61,5,2024-01-29 16:38:30,0.0
4354,-66,-226,-42,-29,8,2024-01-29 16:38:30,0.0
4337,-118,-199,-56,16,14,2024-01-29 16:38:30,0.0
4395,-66,-152,-61,3,11,2024-01-29 16:38:30,0.0
4355,-99,-217,-71,25,20,2024-01-29 16:38:30,0.0
4378,-73,-171,-60,-6,21,2024-01-29 16:38:30,0.0
4330,-137,-170,-57,19,23,2024-01-29 16:38:30,0.0
4306,-96,-220,-41,26,14,2024-01-29 16:38:30,0.0
4359,-108,-166,-35,-59,10,2024-01-29 16:38:30,0.0
4356,-121,-208,-24,-41,6,2024-01-29 16:38:30,0.0
4370,-87,-251,-36,-26,10,2024-01-29 16:38:31,0.0
4400,-126,-199,-26,39,14,2024-01-29 16:38:31,0.0
4329,-122,-194,-37,-11,15,2024-01-29 16:38:31,0.0
4324,-107,-197,-26,-33,13,2024-01-29 16:38:31,0.0
4340,-120,-206,-27,-44,10,2024-01-29 16:38:31,0.0
4371,-83,-186,-29,-28,14,2024-01-29 16:38:31,0.0
4347,-117,-195,-37,-46,5,2024-01-29 16:38:31,0.0
4356,-89,-180,-42,-51,14,2024-01-29 16:38:31,0.0
4269,-112,-225,-45,-45,14,2024-01-29 16:38:31,0.0
4384,-136,-260,-38,-17,9,2024-01-29 16:38:31,0.0
4377,-134,-169,-46,-7,8,2024-01-29 16:38:31,0.0
4379,-99,-193,-40,3,5,2024-01-29 16:38:31,0.0
4333,-80,-203,-44,5,8,2024-01-29 16:38:31,0.0
4313,-131,-157,-52,-17,7,2024-01-29 16:38:31,0.0
4298,-118,-139,-32,-17,3,2024-01-29 16:38:31,0.0
4350,-78,-152,-47,-14,2,2024-01-29 16:38:31,0.0
4326,-123,-160,-38,-61,0,2024-01-29 16:38:31,0.0
4359,-84,-180,-41,-61,4,2024-01-29 16:38:32,0.0
4367,-135,-221,-44,-68,4,2024-01-29 16:38:32,0.0
4350,-130,-144,-43,-53,2,2024-01-29 16:38:32,0.0
4320,-71,-164,-37,-48,1,2024-01-29 16:38:32,0.0
4313,-75,-220,-36,-25,2,2024-01-29 16:38:32,0.0
4329,-101,-195,-40,-56,8,2024-01-29 16:38:32,0.0
4308,-104,-234,-32,-53,8,2024-01-29 16:38:32,0.0
4366,-93,-229,-37,-38,10,2024-01-29 16:38:32,0.0
4326,-102,-243,-32,-59,8,2024-01-29 16:38:32,0.0
4329,-117,-199,-37,-48,8,2024-01-29 16:38:32,
4336,-82,-215,-34,-66,11,2024-01-29 16:38:32,0.0
4341,-107,-237,-35,-37,13,2024-01-29 16:38:32,0.0
4326,-87,-182,-33,-9,9,2024-01-29 16:38:32,0.0
4341,-78,-241,-40,21,9,2024-01-29 16:38:32,0.0
4366,-107,-224,-43,12,19,2024-01-29 16:38:32,0.0
4337,-116,-253,-38,30,18,2024-01-29 16:38:32,0.0
4333,-120,-196,-42,14,15,2024-01-29 16:38:32,0.0
4326,-72,-75,-44,14,12,2024-01-29 16:38:33,0.0
4473,-121,32,-50,398,11,2024-01-29 16:38:33,0.0
3898,-101,-31,20,-39,12,2024-01-29 16:38:33,0.0
4457,-295,263,-81,-106,-11,2024-01-29 16:38:33,0.0
4214,36,444,-136,-255,-4,2024-01-29 16:38:33,0.0
4237,-201,190,-201,-235,39,2024-01-29 16:38:33,0.0
4278,-284,401,-103,-211,31,2024-01-29 16:38:33,0.0
4215,-27,415,-230,-156,61,2024-01-29 16:38:33,0.0
3689,-239,181,-135,-241,35,2024-01-29 16:38:33,0.0
3688,-242,-32,-176,-376,23,2024-01-29 16:38:33,0.0
3094,-7,-180,-129,-678,-3,2024-01-29 16:38:33,0.0
3608,-139,-55,-146,-696,10,2024-01-29 16:38:33,0.0
3841,-306,-531,-11,-872,-5,2024-01-29 16:38:33,0.0
4542,-369,-439,-55,-917,78,2024-01-29 16:38:33,0.0
4103,-150,-537,11,-958,-94,2024-01-29 16:38:33,0.0
3716,-89,18,-77,-1022,-9,2024-01-29 16:38:33,0.0
2622,-98,-308,-211,-1160,-164,2024-01-29 16:38:33,0.0
2031,26,-440,-266,-1398,-277,2024-01-29 16:38:33,0.0
955,-125,-1260,-143,-2663,-331,2024-01-29 16:38:34,0.0
3491,-492,-1958,129,-3590,-381,2024-01-29 16:38:34,0.0
4080,603,-6485,403,-4689,5,2024-01-29 16:38:34,0.0
3857,1233,-6692,-799,-4220,55,2024-01-29 16:38:34,0.0
2522,-630,594,-1410,-1431,-278,2024-01-29 16:38:34,0.0
-4506,-1892,-1586,-94,-1225,-570,2024-01-29 16:38:34,0.0
-318,1408,-13438,1891,1060,-444,2024-01-29 16:38:34,0.0
-3966,1717,-6696,257,56,13,2024-01-29 16:38:34,0.0
371,106,-5709,-264,499,329,2024-01-29 16:38:34,0.0
-2653,845,-3696,-409,56,167,2024-01-29 16:38:34,0.0
931,-731,-3255,-496,-555,-198,2024-01-29 16:38:34,0.0
-809,-35,-3363,45,69,-43,2024-01-29 16:38:34,0.0
-160,665,-3903,151,24,-64,2024-01-29 16:38:34,0.0
32,514,-4497,146,316,-20,2024-01-29 16:38:34,0.0
71,80,-4541,66,546,80,2024-01-29 16:38:34,0.0
214,-1,-4437,-26,351,-8,2024-01-29 16:38:34,0.0
524,291,-4346,-115,-157,-137,2024-01-29 16:38:34,0.0
805,142,-4085,49,-140,-144,2024-01-29 16:38:35,0.0
303,38,-4000,150,-145,-105,2024-01-29 16:38:35,0.0
188,-3,-3986,83,-102,-86,2024-01-29 16:38:35,0.0
183,142,-4208,10,-139,-81,2024-01-29 16:38:35,0.0
120,-164,-4310,-100,5,-37,2024-01-29 16:38:35,0.0
376,-49,-4247,20,55,27,2024-01-29 16:38:35,0.0
299,-15,-4136,-82,55,38,2024-01-29 16:38:35,0.0
188,-9,-4332,-39,23,-6,2024-01-29 16:38:35,0.0
307,79,-4246,-74,-64,36,2024-01-29 16:38:35,0.0
230,-68,-4265,-8,-89,17,2024-01-29 16:38:35,0.0
278,48,-4107,-49,-62,24,2024-01-29 16:38:35,0.0
273,8,-4160,-95,-48,49,2024-01-29 16:38:35,0.0
198,77,-4220,-29,-28,11,2024-01-29 16:38:35,0.0
210,79,-4253,-6,-53,-2,2024-01-29 16:38:35,0.0
182,37,-4272,-70,-3,23,2024-01-29 16:38:35,0.0
178,32,-4197,-45,-1,13,2024-01-29 16:38:35,0.0
242,71,-4193,-63,-89,21,2024-01-29 16:38:35,0.0
180,-48,-4253,-58,-81,5,2024-01-29 16:38:35,0.0
202,81,-4214,-38,-109,22,2024-01-29 16:38:36,0.0
213,126,-4194,-50,-59,22,2024-01-29 16:38:36,0.0
226,143,-4072,3,-191,7,2024-01-29 16:38:36,0.0
95,17,-4202,-75,-116,14,2024-01-29 16:38:36,0.0
98,-31,-4179,-17,-45,-12,2024-01-29 16:38:36,0.0
100,75,-4227,-12,-39,11,2024-01-29 16:38:36,0.0
138,150,-4171,-4,53,28,2024-01-29 16:38:36,0.0
93,14,-4229,-19,51,28,2024-01-29 16:38:36,0.0
184,27,-4062,-52,-55,22,2024-01-29 16:38:36,0.0
144,37,-4221,-73,-75,16,2024-01-29 16:38:36,0.0
119,47,-4141,-62,-101,25,2024-01-29 16:38:36,0.0
74,49,-4330,-64,-113,34,2024-01-29 16:38:36,0.0
79,78,-4315,-93,-35,29,2024-01-29 16:38:36,0.0
62,101,-4217,-94,-51,26,2024-01-29 16:38:36,0.0
131,101,-4186,-66,11,22,2024-01-29 16:38:36,0.0
102,114,-4116,-64,-35,6,2024-01-29 16:38:36,0.0
80,122,-4245,-25,1,15,2024-01-29 16:38:36,0.0
99,84,-4242,-22,-5,8,2024-01-29 16:38:37,0.0
90,71,-4146,-27,-107,-7,2024-01-29 16:38:37,0.0
116,68,-4115,-31,-106,4,2024-01-29 16:38:37,0.0
9,81,-4191,-38,16,11,2024-01-29 16:38:37,0.0
135,41,-4258,9,-56,-19,2024-01-29 16:38:37,0.0
-5,194,-4129,-94,150,31,2024-01-29 16:38:37,0.0
177,106,-4201,-61,46,16,2024-01-29 16:38:37,0.0
152,63,-4218,-53,-57,-1,2024-01-29 16:38:37,0.0
144,156,-4020,-38,-76,31,2024-01-29 16:38:37,0.0
84,70,-4293,-80,-17,22,2024-01-29 16:38:37,0.0
72,130,-4274,-104,80,31,2024-01-29 16:38:37,0.0
187,62,-4080,-59,-27,14,2024-01-29 16:38:37,0.0
150,227,-4134,-23,-20,8,2024-01-29 16:38:37,0.0
166,128,-4293,-37,4,18,2024-01-29 16:38:37,0.0
200,176,-4118,-47,-20,17,2024-01-29 16:38:37,0.0
155,94,-4248,7,-39,-5,2024-01-29 16:38:37,0.0
113,99,-4178,-53,35,14,2024-01-29 16:38:37,0.0
193,77,-4083,-30,-94,-1,2024-01-29 16:38:37,0.0
128,135,-4336,-3,-77,0,2024-01-29 16:38:38,0.0
98,24,-4260,-60,-69,25,2024-01-29 16:38:38,0.0
195,44,-3960,-70,-96,19,2024-01-29 16:38:38,0.0
91,24,-4009,-1,-52,-17,2024-01-29 16:38:38,0.0
85,165,-4268,5,-16,-4,2024-01-29 16:38:38,
110,128,-4125,-44,-61,2,2024-01-29 16:38:38,0.0
120,119,-4246,-4,-49,0,2024-01-29 16:38:38,0.0
110,71,-4268,-11,-84,-8,2024-01-29 16:38:38,0.0
55,73,-4220,-85,-66,27,2024-01-29 16:38:38,0.0
81,63,-4242,-48,-3,14,2024-01-29 16:38:38,0.0
106,60,-4154,-21,-53,2,2024-01-29 16:38:38,0.0
101,109,-4200,-12,-71,-4,2024-01-29 16:38:38,0.0
41,106,-4194,-38,-41,9,2024-01-29 16:38:38,0.0
52,106,-4251,-65,6,24,2024-01-29 16:38:38,0.0
78,79,-4213,-42,10,10,2024-01-29 16:38:38,0.0
98,97,-4124,-24,-19,8,2024-01-29 16:38:38,0.0
96,94,-4177,-20,-19,9,2024-01-29 16:38:38,0.0
98,73,-4175,-41,-74,13,2024-01-29 16:38:39,0.0
50,67,-4258,-9,-98,9,2024-01-29 16:38:39,0.0
54,66,-4248,-26,-63,4,2024-01-29 16:38:39,0.0
52,47,-4201,-42,-34,13,2024-01-29 16:38:39,0.0
30,69,-4206,-46,-3,8,2024-01-29 16:38:39,0.0
71,78,-4176,-42,-9,6,2024-01-29 16:38:39,0.0
36,75,-4139,-37,-20,6,2024-01-29 16:38:39,0.0
27,62,-4234,-50,-43,9,2024-01-29 16:38:39,0.0
63,69,-4205,-49,-52,7,2024-01-29 16:38:39,0.0
28,82,-4267,-74,-28,9,2024-01-29 16:38:39,0.0
75,94,-4107,-82,80,54,2024-01-29 16:38:39,0.0
69,110,-4191,-43,60,14,2024-01-29 16:38:39,0.0
109,128,-4180,-53,7,29,2024-01-29 16:38:39,0.0
121,135,-4212,-36,-22,14,2024-01-29 16:38:39,0.0
64,163,-4261,-36,-10,10,2024-01-29 16:38:39,0.0
74,67,-4190,-73,-3,26,2024-01-29 16:38:39,0.0
107,27,-4170,-48,11,15,2024-01-29 16:38:39,0.0
115,90,-4250,-25,6,3,2024-01-29 16:38:39,0.0
125,122,-4243,-90,2,24,2024-01-29 16:38:40,0.0
104,181,-4235,-104,-1,40,2024-01-29 16:38:40,0.0
176,165,-4177,-32,-5,7,2024-01-29 16:38:40,0.0
156,150,-4144,-43,15,7,2024-01-29 16:38:40,0.0
173,146,-4188,-46,-15,23,2024-01-29 16:38:40,0.0
211,139,-4187,-13,-29,10,2024-01-29 16:38:40,0.0
182,148,-4204,-65,-18,13,2024-01-29 16:38:40,0.0
169,142,-4123,-24,-147,3,2024-01-29 16:38:40,0.0
91,123,-4270,-71,-87,10,2024-01-29 16:38:40,0.0
105,130,-4128,-74,-70,33,2024-01-29 16:38:40,0.0
97,128,-4189,-23,-11,13,2024-01-29 16:38:40,0.0
150,143,-4192,-24,-40,9,2024-01-29 16:38:40,0.0
104,123,-4512,-35,-10,1,2024-01-29 16:38:40,0.0
-140,103,-4195,-128,-358,13,2024-01-29 16:38:40,0.0
268,246,-4013,-58,-31,20,2024-01-29 16:38:40,0.0
10,70,-4029,-66,46,12,2024-01-29 16:38:40,0.0
41,120,-4585,-17,-90,19,2024-01-29 16:38:40,0.0
103,81,-4062,-31,-69,23,2024-01-29 16:38:41,0.0
107,274,-3948,6,-30,-21,2024-01-29 16:38:41,0.0
-129,267,-4246,-32,-64,4,2024-01-29 16:38:41,0.0
48,106,-4225,-45,-69,-1,2024-01-29 16:38:41,0.0
12,178,-4515,-33,179,48,2024-01-29 16:38:41,0.0
-11,89,-4051,-5,-25,16,2024-01-29 16:38:41,0.0
185,200,-4097,-92,51,37,2024-01-29 16:38:41,0.0
10,111,-3952,-119,-82,29,2024-01-29 16:38:41,0.0
267,90,-4303,-10,150,15,2024-01-29 16:38:41,0.0
-36,195,-4229,-34,3,3,2024-01-29 16:38:41,0.0
102,227,-4255,-51,29,-3,2024-01-29 16:38:41,0.0
123,238,-4185,-43,-34,15,2024-01-29 16:38:41,0.0
165,112,-4091,-30,5,1,2024-01-29 16:38:41,0.0
170,181,-4127,-8,29,-9,2024-01-29 16:38:41,0.0
36,187,-4404,-11,43,-2,2024-01-29 16:38:41,0.0
193,206,-4132,-38,-26,27,2024-01-29 16:38:41,0.0
179,119,-4163,-38,3,2,2024-01-29 16:38:41,0.0
189,57,-4173,-15,-39,-9,2024-01-29 16:38:41,0.0
150,150,-4212,-32,-38,-7,2024-01-29 16:38:42,0.0
188,238,-4222,-73,-6,24,2024-01-29 16:38:42,0.0
144,154,-4219,-65,-5,25,2024-01-29 16:38:42,0.0
204,148,-4191,-84,3,22,2024-01-29 16:38:42,0.0
167,154,-4181,-74,-38,26,2024-01-29 16:38:42,0.0
221,242,-4182,-48,-13,9,2024-01-29 16:38:42,0.0
189,181,-4189,-62,-24,14,2024-01-29 16:38:42,0.0
173,204,-4233,-54,-33,12,2024-01-29 16:38:42,0.0
191,192,-4164,-26,-20,7,2024-01-29 16:38:42,0.0
187,195,-4147,-12,-34,3,2024-01-29 16:38:42,0.0
164,198,-4161,16,-85,-3,2024-01-29 16:38:42,0.0
211,155,-4288,7,-58,2,2024-01-29 16:38:42,0.0
175,208,-4227,-34,11,14,2024-01-29 16:38:42,0.0
186,146,-4139,-46,-32,1,2024-01-29 16:38:42,0.0
196,164,-4173,-30,-28,9,2024-01-29 16:38:42,0.0
167,182,-4175,-38,-51,12,2024-01-29 16:38:42,0.0
150,159,-4203,-30,-83,10,2024-01-29 16:38:42,0.0
141,146,-4279,-39,-43,6,2024-01-29 16:38:43,0.0
151,168,-4207,-60,-18,16,2024-01-29 16:38:43,0.0
182,171,-4185,-78,-28,21,2024-01-29 16:38:43,0.0
347,184,-3911,-61,-81,20,2024-01-29 16:38:43,0.0
-61,99,-4411,70,58,-6,2024-01-29 16:38:43,0.0
89,181,-4270,-36,15,20,2024-01-29 16:38:43,0.0
182,121,-4213,-114,106,25,2024-01-29 16:38:43,0.0
210,172,-4180,-103,151,35,2024-01-29 16:38:43,0.0
366,196,-4141,-56,114,18,2024-01-29 16:38:43,0.0
258,206,-4069,-3,0,-4,2024-01-29 16:38:43,0.0
257,192,-4199,-20,-45,5,2024-01-29 16:38:43,0.0
278,152,-4269,-38,-26,1,2024-01-29 16:38:43,0.0
303,149,-4242,-34,12,8,2024-01-29 16:38:43,0.0
300,109,-4182,-11,48,8,2024-01-29 16:38:43,0.0
128,383,-4657,-34,253,20,2024-01-29 16:38:43,0.0
-253,751,-4809,141,-409,-97,2024-01-29 16:38:43,0.0
-426,841,-4464,8,-701,-242,2024-01-29 16:38:43,0.0
-473,689,-4306,231,-730,-438,2024-01-29 16:38:43,
-232,553,-4023,322,-364,-500,2024-01-29 16:38:44,0.0
-477,-1055,-4289,485,37,-578,2024-01-29 16:38:44,0.0
-197,-1775,-4417,959,-211,-530,2024-01-29 16:38:44,0.0
353,-1080,-4264,909,-62,-333,2024-01-29 16:38:44,0.0
193,-1420,-4418,706,216,16,2024-01-29 16:38:44,0.0
-201,-989,-3771,383,46,238,2024-01-29 16:38:44,0.0
-805,-1619,-3837,-10,-140,291,2024-01-29 16:38:44,0.0
-792,-2277,-4420,323,-296,305,2024-01-29 16:38:44,0.0
-375,-1641,-3296,521,-385,440,2024-01-29 16:38:44,0.0
-259,-861,-2605,535,-264,314,2024-01-29 16:38:44,0.0
-599,-1405,-3711,555,553,43,2024-01-29 16:38:44,0.0
261,-10,-4480,116,936,279,2024-01-29 16:38:44,0.0
-754,-351,-4907,-1159,1303,420,2024-01-29 16:38:44,0.0
830,-1169,-4316,-541,290,203,2024-01-29 16:38:44,0.0
601,-273,-3741,-213,766,436,2024-01-29 16:38:44,0.0
-2,-999,-4440,-471,989,647,2024-01-29 16:38:44,0.0
959,-606,-4626,-363,977,311,2024-01-29 16:38:44,0.0
597,393,-3444,-484,744,-46,2024-01-29 16:38:45,0.0
515,-32,-3917,-662,341,-51,2024-01-29 16:38:45,0.0
280,-143,-4379,-523,128,-13,2024-01-29 16:38:45,0.0
198,-54,-3961,-588,-184,195,2024-01-29 16:38:45,0.0
498,746,-4075,-943,-838,297,2024-01-29 16:38:45,0.0
649,548,-3801,-1271,58,463,2024-01-29 16:38:45,0.0
870,-476,-3874,-754,336,507,2024-01-29 16:38:45,0.0
1751,-494,-4307,-280,604,347,2024-01-29 16:38:45,0.0
1607,-387,-4342,295,839,-5,2024-01-29 16:38:45,0.0
1678,236,-4597,450,923,-22,2024-01-29 16:38:45,0.0
1843,-462,-3893,296,898,-19,2024-01-29 16:38:45,0.0
1636,64,-4035,451,1123,40,2024-01-29 16:38:45,0.0
1712,-673,-3237,717,1030,-263,2024-01-29 16:38:45,0.0
2157,-249,-2950,792,1141,-465,2024-01-29 16:38:45,0.0
2664,160,-3248,523,1107,-544,2024-01-29 16:38:45,0.0
3608,-408,-3610,315,1380,-493,2024-01-29 16:38:45,0.0
3554,-373,-3591,226,1450,-494,2024-01-29 16:38:45,0.0
3951,-420,-3100,90,1933,-604,2024-01-29 16:38:46,0.0
4033,-304,-1629,-179,1521,-639,2024-01-29 16:38:46,0.0
3127,56,-1745,130,-36,-575,2024-01-29 16:38:46,0.0
3772,201,-2118,343,-1310,-542,2024-01-29 16:38:46,0.0
4116,569,-3186,330,-1792,-357,2024-01-29 16:38:46,0.0
4588,567,-3957,-75,-1578,-243,2024-01-29 16:38:46,0.0
3107,-248,-3906,70,-1082,34,2024-01-29 16:38:46,0.0
3947,667,-2408,275,-1280,-5,2024-01-29 16:38:46,0.0
3301,-234,-3416,-13,-961,-80,2024-01-29 16:38:46,0.0
3979,414,-3745,-64,-284,19,2024-01-29 16:38:46,0.0
3585,188,-4052,-124,525,109,2024-01-29 16:38:46,0.0
3289,174,-3602,-85,1017,91,2024-01-29 16:38:46,0.0
3424,200,-3648,-115,916,126,2024-01-29 16:38:46,0.0
3562,351,-3031,-216,612,102,2024-01-29 16:38:46,0.0
3326,-39,-2693,-309,883,59,2024-01-29 16:38:46,0.0
3203,126,-1621,-201,1248,35,2024-01-29 16:38:46,0.0
3156,320,-1637,7,1364,131,2024-01-29 16:38:46,0.0
3316,187,-1641,-218,1341,256,2024-01-29 16:38:46,0.0
3412,164,-1265,-280,1580,251,2024-01-29 16:38:47,0.0
2592,-31,-952,-208,1606,239,2024-01-29 16:38:47,0.0
2338,60,-525,-135,1088,295,2024-01-29 16:38:47,0.0
3915,0,-651,-72,1215,253,2024-01-29 16:38:47,0.0
4171,146,-508,-106,1312,101,2024-01-29 16:38:47,0.0
3845,-95,-87,-298,448,131,2024-01-29 16:38:47,0.0
4934,184,-817,-131,502,48,2024-01-29 16:38:47,0.0
3996,286,665,-244,279,23,2024-01-29 16:38:47,0.0
4220,-311,181,-20,375,24,2024-01-29 16:38:47,0.0
4449,-43,177,-41,354,49,2024-01-29 16:38:47,0.0
4237,97,296,-58,-175,-68,2024-01-29 16:38:47,0.0
4344,-61,221,-139,-204,-58,2024-01-29 16:38:47,0.0
4127,-210,326,-62,-233,-59,2024-01-29 16:38:47,0.0
4455,-133,226,-20,-305,-64,2024-01-29 16:38:47,0.0
4359,51,262,-98,-101,-23,2024-01-29 16:38:47,0.0
4464,151,-336,-33,-1,35,2024-01-29 16:38:47,0.0
4349,-315,-239,-11,-66,-2,2024-01-29 16:38:47,0.0
4173,-79,148,159,-135,22,2024-01-29 16:38:48,0.0
4255,-110,15,76,-209,11,2024-01-29 16:38:48,0.0
4496,-14,209,51,-231,19,2024-01-29 16:38:48,0.0
4334,-135,178,79,-338,2,2024-01-29 16:38:48,0.0
4198,-4,-267,119,-282,2,2024-01-29 16:38:48,0.0
4573,112,218,0,-320,-71,2024-01-29 16:38:48,0.0
4052,-113,-538,109,-270,-24,2024-01-29 16:38:48,0.0
4434,87,-401,-84,-244,29,2024-01-29 16:38:48,0.0
4137,322,-572,-231,-334,8,2024-01-29 16:38:48,0.0
3737,354,-665,-564,-710,19,2024-01-29 16:38:48,0.0
4589,-7,-302,-624,-645,125,2024-01-29 16:38:48,0.0
4963,-151,-493,-259,-273,56,2024-01-29 16:38:48,0.0
4703,-67,-385,-43,-191,39,2024-01-29 16:38:48,0.0
4254,182,-362,106,75,-35,2024-01-29 16:38:48,0.0
4127,723,-497,109,82,-76,2024-01-29 16:38:48,0.0
4457,559,-554,46,108,-75,2024-01-29 16:38:48,0.0
4329,-221,-1016,61,69,-55,2024-01-29 16:38:48,0.0
3830,-385,-894,246,-40,21,2024-01-29 16:38:48,0.0
4443,-355,-947,324,-39,-55,2024-01-29 16:38:49,0.0
4753,-284,-823,276,51,74,2024-01-29 16:38:49,0.0
4152,-237,-646,196,14,22,2024-01-29 16:38:49,0.0
4062,-284,-547,112,45,15,2024-01-29 16:38:49,0.0
4218,-294,-706,54,112,-17,2024-01-29 16:38:49,0.0
4308,-120,-695,-105,70,-61,2024-01-29 16:38:49,0.0
4872,224,-877,-187,223,75,2024-01-29 16:38:49,0.0
3941,-182,-428,-129,64,45,2024-01-29 16:38:49,0.0
4265,-222,-481,-126,22,63,2024-01-29 16:38:49,0.0
4316,2,-625,-93,62,65,2024-01-29 16:38:49,0.0
4386,61,-365,-171,105,43,2024-01-29 16:38:49,0.0
4440,16,-383,-176,108,44,2024-01-29 16:38:49,0.0
4333,-108,-397,-159,157,43,2024-01-29 16:38:49,
4250,144,-381,-138,238,26,2024-01-29 16:38:49,0.0
4552,38,-397,-154,247,-7,2024-01-29 16:38:49,0.0
4252,-108,-295,-74,2,-51,2024-01-29 16:38:49,0.0
4120,131,-287,-80,80,-6,2024-01-29 16:38:49,0.0
3874,100,-355,-21,-252,40,2024-01-29 16:38:49,0.0
4652,-48,-269,-23,-9,64,2024-01-29 16:38:50,0.0
4618,-96,-334,57,88,18,2024-01-29 16:38:50,0.0
4103,-58,-337,79,-87,-41,2024-01-29 16:38:50,0.0
4265,-52,-283,160,-202,41,2024-01-29 16:38:50,0.0
4538,-334,-483,252,-219,40,2024-01-29 16:38:50,0.0
4106,-133,-278,174,-241,44,2024-01-29 16:38:50,0.0
4398,-154,-248,201,-182,-35,2024-01-29 16:38:50,0.0
4470,-291,-317,191,-154,-39,2024-01-29 16:38:50,0.0
4568,-76,-311,30,248,-13,2024-01-29 16:38:50,0.0
4491,66,-308,-80,114,60,2024-01-29 16:38:50,0.0
4289,-58,-373,-76,38,52,2024-01-29 16:38:50,0.0
4221,-203,-400,-75,32,63,2024-01-29 16:38:50,0.0
4254,-88,-390,-54,-48,19,2024-01-29 16:38:50,0.0
4563,-25,-144,-143,-311,22,2024-01-29 16:38:50,0.0
4293,-41,-346,-172,-94,-17,2024-01-29 16:38:50,0.0
4306,-89,-464,-119,-68,-5,2024-01-29 16:38:50,0.0
4277,-90,-383,-83,-36,-33,2024-01-29 16:38:50,0.0
4350,-104,-450,-97,30,-13,2024-01-29 16:38:51,0.0
4363,1,-391,-116,-28,-12,2024-01-29 16:38:51,0.0
4326,5,-420,-97,-16,-16,2024-01-29 16:38:51,0.0
4253,-94,-413,-92,-36,1,2024-01-29 16:38:51,0.0
4396,-62,-407,-58,-35,-12,2024-01-29 16:38:51,0.0
4335,-82,-358,-68,-31,5,2024-01-29 16:38:51,0.0
4321,-73,-400,-12,-49,12,2024-01-29 16:38:51,0.0
4331,-78,-452,1,-66,4,2024-01-29 16:38:51,0.0
4352,-117,-501,33,-75,1,2024-01-29 16:38:51,0.0
4305,-122,-436,102,-166,-15,2024-01-29 16:38:51,0.0
4286,2,-541,88,-159,-18,2024-01-29 16:38:51,0.0
4372,-17,-510,70,-105,-16,2024-01-29 16:38:51,0.0
4332,9,-518,20,-161,-6,2024-01-29 16:38:51,0.0
4297,-26,-613,24,-93,-2,2024-01-29 16:38:51,0.0
4317,-52,-560,-6,-99,0,2024-01-29 16:38:51,0.0
4283,-11,-579,-25,-96,-3,2024-01-29 16:38:51,0.0
4342,3,-601,-54,-80,-1,2024-01-29 16:38:51,0.0
4291,-28,-579,-62,-83,3,2024-01-29 16:38:51,0.0
4294,-21,-549,-76,-66,11,2024-01-29 16:38:52,0.0
4255,-13,-574,-91,-15,6,2024-01-29 16:38:52,0.0
4283,-46,-651,-76,1,17,2024-01-29 16:38:52,0.0
4255,-41,-663,-64,-12,17,2024-01-29 16:38:52,0.0
4283,-38,-619,-53,-42,17,2024-01-29 16:38:52,0.0
4362,-41,-660,-36,-30,15,2024-01-29 16:38:52,0.0
4293,2,-611,-39,-7,12,2024-01-29 16:38:52,0.0
4279,-31,-698,-23,-6,9,2024-01-29 16:38:52,0.0
4324,-32,-666,-16,28,9,2024-01-29 16:38:52,0.0
4333,-17,-650,-58,16,9,2024-01-29 16:38:52,0.0
4347,-40,-500,-77,20,9,2024-01-29 16:38:52,0.0
4336,-15,-528,-94,26,17,2024-01-29 16:38:52,0.0
4289,-5,-554,-104,19,13,2024-01-29 16:38:52,0.0
4276,-12,-570,-135,29,21,2024-01-29 16:38:52,0.0
4326,-12,-554,-159,13,30,2024-01-29 16:38:52,0.0
4334,-60,-494,-160,-31,27,2024-01-29 16:38:52,0.0
4288,-59,-538,-132,-30,27,2024-01-29 16:38:52,0.0
4300,-98,-505,-118,-27,20,2024-01-29 16:38:53,0.0
4323,-43,-578,-100,102,10,2024-01-29 16:38:53,0.0
4300,-26,-549,-79,31,25,2024-01-29 16:38:53,0.0
4370,-49,-418,-52,-18,10,2024-01-29 16:38:53,0.0
4287,-48,-473,-51,-31,25,2024-01-29 16:38:53,0.0
4299,-81,-521,-10,-57,17,2024-01-29 16:38:53,0.0
4318,-22,-499,-21,-56,19,2024-01-29 16:38:53,0.0
4320,-35,-488,-12,-62,10,2024-01-29 16:38:53,0.0
4327,-24,-507,-19,-49,8,2024-01-29 16:38:53,0.0
4339,-37,-515,-24,-49,5,2024-01-29 16:38:53,0.0
4337,-35,-503,-35,-17,6,2024-01-29 16:38:53,0.0
4285,-33,-549,-42,-49,1,2024-01-29 16:38:53,0.0
4309,-49,-616,-34,-30,2,2024-01-29 16:38:53,0.0
4329,-24,-560,-45,-38,7,2024-01-29 16:38:53,0.0
4305,-71,-538,-40,-29,1,2024-01-29 16:38:53,0.0
4311,-43,-547,-48,-16,2,2024-01-29 16:38:53,0.0
4304,-71,-535,-35,1,5,2024-01-29 16:38:53,0.0
4331,-9,-487,-48,-20,0,2024-01-29 16:38:54,0.0
4317,-30,-439,-45,-66,-1,2024-01-29 16:38:54,0.0
4285,-22,-526,-54,14,6,2024-01-29 16:38:54,0.0
4276,-68,-525,-27,-38,7,2024-01-29 16:38:54,0.0
4320,-15,-533,-21,-5,4,2024-01-29 16:38:54,0.0
4312,-9,-531,-34,-2,8,2024-01-29 16:38:54,0.0
4292,-54,-541,-24,9,0,2024-01-29 16:38:54,0.0
4318,-41,-472,-34,-5,-1,2024-01-29 16:38:54,0.0
4304,-29,-486,-36,-16,-1,2024-01-29 16:38:54,0.0
4322,-51,-534,-47,-3,1,2024-01-29 16:38:54,0.0
4296,-37,-438,-57,-27,-1,2024-01-29 16:38:54,0.0
4345,-27,-497,-62,38,8,2024-01-29 16:38:54,0.0
4285,-3,-442,-61,19,8,2024-01-29 16:38:54,0.0
4319,-40,-416,-64,24,5,2024-01-29 16:38:54,0.0
4353,-42,-451,-74,3,6,2024-01-29 16:38:54,0.0
4342,-20,-382,-64,-8,2,2024-01-29 16:38:54,0.0
4328,-58,-409,-63,2,9,2024-01-29 16:38:54,0.0
4307,-31,-383,-38,-11,9,2024-01-29 16:38:54,0.0
4320,-11,-377,-31,1,10,2024-01-29 16:38:55,0.0
4361,-24,-388,-18,-30,7,2024-01-29 16:38:55,0.0
4296,-32,-342,-30,-24,7,2024-01-29 16:38:55,0.0
4344,8,-327,-20,-4,13,2024-01-29 16:38:55,0.0
4326,34,-336,-40,-6,8,2024-01-29 16:38:55,0.0
4334,-68,-430,-29,-20,20,2024-01-29 16:38:55,0.0
4308,-6,-434,0,-18,10,2024-01-29 16:38:55,0.0
4311,-17,-375,-14,-29,9,2024-01-29 16:38:55,
4306,-17,-369,-4,-30,4,2024-01-29 16:38:55,0.0
4354,46,-408,-42,-42,6,2024-01-29 16:38:55,0.0
4290,-25,-370,-36,-55,7,2024-01-29 16:38:55,0.0
4325,-5,-404,-41,-46,10,2024-01-29 16:38:55,0.0
4296,-4,-439,-45,-24,12,2024-01-29 16:38:55,0.0
4366,-23,-343,-49,7,9,2024-01-29 16:38:55,0.0
4340,-25,-317,-55,9,18,2024-01-29 16:38:55,0.0
4329,-17,-332,-39,8,11,2024-01-29 16:38:55,0.0
4366,-55,-331,-51,-40,17,2024-01-29 16:38:55,0.0
4289,-65,-388,-46,-32,10,2024-01-29 16:38:56,0.0
4368,-55,-315,-43,-19,14,2024-01-29 16:38:56,0.0
4331,-58,-370,-49,-44,10,2024-01-29 16:38:56,0.0
4305,-41,-395,-44,-44,9,2024-01-29 16:38:56,0.0
4289,-17,-376,-34,-39,9,2024-01-29 16:38:56,0.0
4302,-53,-476,-18,-46,12,2024-01-29 16:38:56,0.0
4300,-36,-484,-23,-34,11,2024-01-29 16:38:56,0.0
4372,-47,-416,-24,-35,7,2024-01-29 16:38:56,0.0
4370,-24,-387,-24,-38,9,2024-01-29 16:38:56,0.0
4328,-41,-442,-29,-17,18,2024-01-29 16:38:56,0.0
4303,-21,-394,-22,7,10,2024-01-29 16:38:56,0.0
4342,-47,-394,-29,-2,12,2024-01-29 16:38:56,0.0
4306,-49,-432,-36,-25,6,2024-01-29 16:38:56,0.0
4310,-54,-332,-49,-41,6,2024-01-29 16:38:56,0.0
4339,-28,-399,-61,-15,12,2024-01-29 16:38:56,0.0
4288,-13,-395,-61,-31,15,2024-01-29 16:38:56,0.0
4282,-54,-386,-52,1,15,2024-01-29 16:38:56,0.0
4333,-44,-402,-56,26,12,2024-01-29 16:38:56,0.0
4343,-93,-356,-48,-18,7,2024-01-29 16:38:57,0.0
4325,-31,-332,-38,-29,13,2024-01-29 16:38:57,0.0
4344,-44,-357,-22,-41,8,2024-01-29 16:38:57,0.0
4336,-51,-347,-32,-55,6,2024-01-29 16:38:57,0.0
4321,-41,-288,-36,-35,10,2024-01-29 16:38:57,0.0
4324,-81,-361,-36,-5,8,2024-01-29 16:38:57,0.0
4322,-27,-326,-42,27,11,2024-01-29 16:38:57,0.0
4425,-24,-302,-84,-18,-6,2024-01-29 16:38:57,0.0
4242,94,62,-119,125,70,2024-01-29 16:38:57,0.0
4385,-143,361,-69,101,-18,2024-01-29 16:38:57,0.0
4126,28,206,-162,101,37,2024-01-29 16:38:57,0.0
4213,-121,163,-205,-36,30,2024-01-29 16:38:57,0.0
3926,-190,293,-88,-197,29,2024-01-29 16:38:57,0.0
3683,-274,87,-43,-284,22,2024-01-29 16:38:57,0.0
3155,-109,-37,32,-502,66,2024-01-29 16:38:57,0.0
3548,-25,394,-13,-391,-4,2024-01-29 16:38:57,0.0
4340,-239,131,17,-259,32,2024-01-29 16:38:57,0.0
3414,-250,-349,25,-535,152,2024-01-29 16:38:58,0.0
3360,-50,-271,19,-742,-13,2024-01-29 16:38:58,0.0
3229,23,11,11,-28,144,2024-01-29 16:38:58,0.0
2749,-21,-164,-215,-1467,-125,2024-01-29 16:38:58,0.0
2033,-171,-105,-366,-2026,-144,2024-01-29 16:38:58,0.0
2084,-389,-1821,-70,-2516,-154,2024-01-29 16:38:58,0.0
4635,-877,-2352,500,-2703,-122,2024-01-29 16:38:58,0.0
3547,494,-9013,537,-4619,-333,2024-01-29 16:38:58,0.0
11383,333,-6525,-556,-2304,266,2024-01-29 16:38:58,0.0
1340,233,-1161,-348,-3063,-218,2024-01-29 16:38:58,0.0
394,-908,-1147,-27,-2172,-281,2024-01-29 16:38:58,0.0
1059,-104,-939,246,-2133,-66,2024-01-29 16:38:58,0.0
-173,-63,-2710,80,430,-110,2024-01-29 16:38:58,0.0
-1057,237,-11417,1019,1872,54,2024-01-29 16:38:58,0.0
-4248,936,-7984,-753,1643,-326,2024-01-29 16:38:58,0.0
-2096,-1251,-5977,-321,-1990,291,2024-01-29 16:38:58,0.0
-594,259,-5180,-188,-957,-78,2024-01-29 16:38:58,0.0
718,-207,-4539,-550,-164,42,2024-01-29 16:38:58,0.0
-264,-486,-3449,11,71,-45,2024-01-29 16:38:59,0.0
298,304,-4173,6,192,-19,2024-01-29 16:38:59,0.0
623,64,-4767,-53,466,25,2024-01-29 16:38:59,0.0
402,143,-4550,-70,214,42,2024-01-29 16:38:59,0.0
604,242,-4390,-91,-23,-8,2024-01-29 16:38:59,0.0
737,-57,-4062,-120,-63,18,2024-01-29 16:38:59,0.0
828,-99,-3952,31,42,-6,2024-01-29 16:38:59,0.0
623,128,-4233,2,70,-7,2024-01-29 16:38:59,0.0
676,333,-4075,-17,118,45,2024-01-29 16:38:59,0.0
403,-87,-4491,-26,16,8,2024-01-29 16:38:59,0.0
773,-63,-4114,69,-95,-24,2024-01-29 16:38:59,0.0
665,22,-4000,10,-70,0,2024-01-29 16:38:59,0.0
664,-72,-4191,-32,-67,10,2024-01-29 16:38:59,0.0
742,29,-4130,-37,-21,14,2024-01-29 16:38:59,0.0
648,133,-4221,-72,0,36,2024-01-29 16:38:59,0.0
547,45,-4196,-26,-65,19,2024-01-29 16:38:59,0.0
604,18,-4295,-55,-29,21,2024-01-29 16:38:59,0.0
624,0,-4295,-91,34,20,2024-01-29 16:39:00,0.0
669,69,-4049,-95,-10,32,2024-01-29 16:39:00,0.0
602,32,-4088,-61,-35,30,2024-01-29 16:39:00,0.0
659,44,-4115,13,-145,1,2024-01-29 16:39:00,0.0
562,51,-4289,-32,-130,20,2024-01-29 16:39:00,0.0
555,55,-4226,-56,-54,14,2024-01-29 16:39:00,0.0
581,57,-4143,-62,-28,17,2024-01-29 16:39:00,0.0
608,70,-4196,-99,-65,12,2024-01-29 16:39:00,0.0
590,61,-4166,-54,-121,1,2024-01-29 16:39:00,0.0
525,64,-4141,-57,-174,1,2024-01-29 16:39:00,0.0
501,54,-4233,-25,-161,7,2024-01-29 16:39:00,0.0
488,61,-4208,-23,-125,4,2024-01-29 16:39:00,0.0
415,53,-4242,-15,-73,0,2024-01-29 16:39:00,0.0
452,78,-4194,-73,-1,15,2024-01-29 16:39:00,0.0
446,88,-4234,-43,-2,10,2024-01-29 16:39:00,0.0
444,75,-4237,-46,9,7,2024-01-29 16:39:00,0.0
442,43,-4185,-53,22,14,2024-01-29 16:39:00,0.0
484,51,-4194,-48,-13,0,2024-01-29 16:39:00,0.0
473,20,-4160,-49,8,-1,2024-01-29 16:39:01,0.0
483,166,-4239,-50,-44,-4,2024-01-29 16:39:01,0.0
455,70,-4224,-86,-37,28,2024-01-29 16:39:01,
468,40,-4185,-47,-52,6,2024-01-29 16:39:01,0.0
435,127,-4276,-85,-20,24,2024-01-29 16:39:01,0.0
463,133,-4153,-46,-35,19,2024-01-29 16:39:01,0.0
485,117,-4124,-9,-47,19,2024-01-29 16:39:01,0.0
478,76,-4180,42,-68,16,2024-01-29 16:39:01,0.0
428,72,-4262,-27,-66,19,2024-01-29 16:39:01,0.0
447,57,-4270,-37,-30,3,2024-01-29 16:39:01,0.0
466,109,-4243,-5,16,5,2024-01-29 16:39:01,0.0
467,77,-4099,37,-7,5,2024-01-29 16:39:01,0.0
474,16,-4160,-27,-25,15,2024-01-29 16:39:01,0.0
456,47,-4222,-30,-3,3,2024-01-29 16:39:01,0.0
501,66,-4248,-24,-9,-1,2024-01-29 16:39:01,0.0
465,50,-4199,-77,0,20,2024-01-29 16:39:01,0.0
496,57,-4122,-43,-29,7,2024-01-29 16:39:01,0.0
459,93,-4222,-43,-27,13,2024-01-29 16:39:02,0.0
498,57,-4191,-31,-7,10,2024-01-29 16:39:02,0.0
486,93,-4242,-40,-12,9,2024-01-29 16:39:02,0.0
501,32,-4129,-69,-53,17,2024-01-29 16:39:02,0.0
463,93,-4151,-55,-54,11,2024-01-29 16:39:02,0.0
485,32,-4209,-4,-67,3,2024-01-29 16:39:02,0.0
424,41,-4215,-29,-83,6,2024-01-29 16:39:02,0.0
425,72,-4221,-33,-68,9,2024-01-29 16:39:02,0.0
400,80,-4231,6,-38,4,2024-01-29 16:39:02,0.0
431,25,-4260,-35,-35,12,2024-01-29 16:39:02,0.0
446,46,-4148,-26,-84,9,2024-01-29 16:39:02,0.0
435,12,-4152,-29,-43,2,2024-01-29 16:39:02,0.0
396,55,-4280,-28,-43,11,2024-01-29 16:39:02,0.0
419,45,-4230,-49,-10,10,2024-01-29 16:39:02,0.0
406,58,-4231,-57,6,13,2024-01-29 16:39:02,0.0
434,59,-4172,-54,-14,14,2024-01-29 16:39:02,0.0
432,37,-4158,-55,-64,15,2024-01-29 16:39:02,0.0
402,21,-4181,-35,-71,15,2024-01-29 16:39:02,0.0
389,64,-4200,-22,-70,21,2024-01-29 16:39:03,0.0
400,46,-4195,-34,-42,13,2024-01-29 16:39:03,0.0
398,32,-4263,-37,-57,14,2024-01-29 16:39:03,0.0
364,37,-4180,-24,-27,4,2024-01-29 16:39:03,0.0
371,39,-4175,-19,-51,13,2024-01-29 16:39:03,0.0
361,34,-4229,-42,-13,10,2024-01-29 16:39:03,0.0
361,52,-4354,-60,-34,13,2024-01-29 16:39:03,0.0
370,31,-4128,-36,-31,12,2024-01-29 16:39:03,0.0
383,28,-4189,-34,-21,13,2024-01-29 16:39:03,0.0
390,59,-4209,-41,-24,10,2024-01-29 16:39:03,0.0
397,52,-4146,4,-21,15,2024-01-29 16:39:03,0.0
418,1,-4140,-14,-47,12,2024-01-29 16:39:03,0.0
385,14,-4243,20,-83,-2,2024-01-29 16:39:03,0.0
332,38,-4248,-33,-46,11,2024-01-29 16:39:03,0.0
347,-4,-4229,-30,-29,8,2024-01-29 16:39:03,0.0
363,7,-4166,-45,-7,13,2024-01-29 16:39:03,0.0
375,9,-4217,-62,-16,14,2024-01-29 16:39:03,0.0
391,46,-4194,-43,-12,9,2024-01-29 16:39:04,0.0
385,29,-4184,-45,-29,8,2024-01-29 16:39:04,0.0
373,18,-4158,-34,-56,11,2024-01-29 16:39:04,0.0
377,14,-4218,-37,-104,23,2024-01-29 16:39:04,0.0
367,25,-4202,-25,-70,5,2024-01-29 16:39:04,0.0
341,12,-4253,-28,-47,9,2024-01-29 16:39:04,0.0
320,2,-4196,-50,2,12,2024-01-29 16:39:04,0.0
359,20,-4197,-17,3,4,2024-01-29 16:39:04,0.0
361,12,-4237,-31,0,5,2024-01-29 16:39:04,0.0
337,-30,-4223,-29,18,9,2024-01-29 16:39:04,0.0
365,2,-4222,-60,6,12,2024-01-29 16:39:04,0.0
374,0,-4164,-56,-12,11,2024-01-29 16:39:04,0.0
363,-22,-4234,-61,-6,9,2024-01-29 16:39:04,0.0
411,16,-4178,-80,-8,14,2024-01-29 16:39:04,0.0
404,22,-4188,-76,-6,11,2024-01-29 16:39:04,0.0
385,13,-4190,-40,-27,10,2024-01-29 16:39:04,0.0
393,37,-4209,-49,-29,10,2024-01-29 16:39:04,0.0
384,40,-4213,-43,-20,9,2024-01-29 16:39:04,0.0
413,22,-4217,-63,-36,11,2024-01-29 16:39:05,0.0
375,40,-4173,-38,-26,10,2024-01-29 16:39:05,0.0
388,29,-4225,-53,-18,9,2024-01-29 16:39:05,0.0
385,61,-4218,-49,-32,5,2024-01-29 16:39:05,0.0
400,52,-4195,-56,-6,12,2024-01-29 16:39:05,0.0
417,58,-4185,-50,-8,6,2024-01-29 16:39:05,0.0
373,48,-4230,-38,-30,11,2024-01-29 16:39:05,0.0
423,79,-4193,-30,-6,6,2024-01-29 16:39:05,0.0
418,43,-4220,-60,-42,10,2024-01-29 16:39:05,0.0
413,82,-4137,-56,-21,12,2024-01-29 16:39:05,0.0
407,50,-4195,-46,-38,11,2024-01-29 16:39:05,0.0
396,70,-4167,-53,-29,12,2024-01-29 16:39:05,0.0
407,69,-4179,-47,-56,11,2024-01-29 16:39:05,0.0
396,37,-4219,-33,-43,7,2024-01-29 16:39:05,0.0
362,39,-4187,-33,-34,11,2024-01-29 16:39:05,0.0
367,66,-4229,-49,-34,14,2024-01-29 16:39:05,0.0
398,58,-4205,-11,-37,5,2024-01-29 16:39:05,0.0
374,39,-4188,-49,-11,10,2024-01-29 16:39:06,0.0
374,68,-4245,-59,-30,11,2024-01-29 16:39:06,0.0
395,51,-4232,-48,-21,12,2024-01-29 16:39:06,0.0
427,65,-4151,-19,-29,6,2024-01-29 16:39:06,0.0
379,81,-4229,-21,-42,8,2024-01-29 16:39:06,0.0
387,77,-4185,-51,-35,11,2024-01-29 16:39:06,0.0
384,75,-4187,-34,-35,9,2024-01-29 16:39:06,0.0
382,36,-4154,-30,-41,11,2024-01-29 16:39:06,0.0
361,55,-4197,-27,-51,9,2024-01-29 16:39:06,0.0
389,71,-4202,-30,-49,11,2024-01-29 16:39:06,0.0
370,69,-4238,-52,-8,7,2024-01-29 16:39:06,0.0
398,56,-4217,-41,-8,10,2024-01-29 16:39:06,0.0
388,49,-4203,-19,-51,0,2024-01-29 16:39:06,0.0
374,65,-4240,-32,-66,4,2024-01-29 16:39:06,0.0
353,55,-4215,-31,-46,8,2024-01-29 16:39:06,0.0
348,29,-4225,-49,-21,12,2024-01-29 16:39:06,
359,74,-4189,-28,-37,10,2024-01-29 16:39:06,0.0
367,72,-4225,-26,-67,3,2024-01-29 16:39:06,0.0
305,71,-4243,-42,-28,10,2024-01-29 16:39:07,0.0
334,32,-4180,-49,1,11,2024-01-29 16:39:07,0.0
335,43,-4226,-43,-4,9,2024-01-29 16:39:07,0.0
341,33,-4181,-49,11,8,2024-01-29 16:39:07,0.0
389,47,-4113,-61,-26,10,2024-01-29 16:39:07,0.0
369,37,-4220,-58,-3,13,2024-01-29 16:39:07,0.0
360,55,-4282,-93,40,14,2024-01-29 16:39:07,0.0
418,97,-4151,-62,0,4,2024-01-29 16:39:07,0.0
398,66,-4145,-62,-16,11,2024-01-29 16:39:07,0.0
423,84,-4143,-20,-49,7,2024-01-29 16:39:07,0.0
406,86,-4175,-8,-115,8,2024-01-29 16:39:07,0.0
363,70,-4224,-4,-95,8,2024-01-29 16:39:07,0.0
330,54,-4213,12,-62,3,2024-01-29 16:39:07,0.0
340,29,-4132,-10,-54,13,2024-01-29 16:39:07,0.0
331,35,-4172,3,-93,7,2024-01-29 16:39:07,0.0
295,14,-4242,0,-83,8,2024-01-29 16:39:07,0.0
295,20,-4246,1,-41,3,2024-01-29 16:39:07,0.0
336,21,-4227,-18,15,8,2024-01-29 16:39:08,0.0
346,-1,-4116,22,-21,9,2024-01-29 16:39:08,0.0
347,-15,-4189,96,-32,-10,2024-01-29 16:39:08,0.0
322,-57,-4218,75,-70,-6,2024-01-29 16:39:08,0.0
286,-98,-4256,56,-47,-10,2024-01-29 16:39:08,0.0
302,-106,-4213,38,-23,-8,2024-01-29 16:39:08,0.0
321,-131,-4140,20,-6,0,2024-01-29 16:39:08,0.0
306,-141,-4231,5,-32,-1,2024-01-29 16:39:08,0.0
312,-126,-4169,-21,-17,6,2024-01-29 16:39:08,0.0
304,-159,-4183,-25,-11,6,2024-01-29 16:39:08,0.0
294,-176,-4213,-28,-21,7,2024-01-29 16:39:08,0.0
328,-147,-4183,-10,-56,6,2024-01-29 16:39:08,0.0
287,-165,-4213,-19,-64,3,2024-01-29 16:39:08,0.0
303,-136,-4223,-45,-35,7,2024-01-29 16:39:08,0.0
288,-138,-4151,-43,-9,10,2024-01-29 16:39:08,0.0
302,-138,-4126,-30,-18,11,2024-01-29 16:39:08,0.0
312,-167,-4190,-28,-40,9,2024-01-29 16:39:08,0.0
294,-141,-4238,-18,-65,7,2024-01-29 16:39:09,0.0
279,-182,-4195,-42,-19,7,2024-01-29 16:39:09,0.0
292,-169,-4238,-45,-7,12,2024-01-29 16:39:09,0.0
302,-161,-4194,-50,-30,12,2024-01-29 16:39:09,0.0
330,-145,-4230,-41,-49,8,2024-01-29 16:39:09,0.0
277,-142,-4212,-71,-23,9,2024-01-29 16:39:09,0.0
289,-141,-4261,-78,-2,13,2024-01-29 16:39:09,0.0
285,-127,-4224,-84,16,16,2024-01-29 16:39:09,0.0
317,-93,-4157,-72,-18,14,2024-01-29 16:39:09,0.0
306,-87,-4232,-62,-33,10,2024-01-29 16:39:09,0.0
319,-73,-4200,-83,20,17,2024-01-29 16:39:09,0.0
329,-86,-4118,-75,-28,17,2024-01-29 16:39:09,0.0
341,-104,-4218,-34,-32,10,2024-01-29 16:39:09,0.0
317,-66,-4219,-49,-70,12,2024-01-29 16:39:09,0.0
284,-68,-4237,-42,-36,12,2024-01-29 16:39:09,0.0
311,-73,-4191,-53,-9,12,2024-01-29 16:39:09,0.0
314,-108,-4175,-50,6,12,2024-01-29 16:39:09,0.0
307,-141,-4522,-68,342,16,2024-01-29 16:39:09,0.0
166,324,-5248,-251,1194,31,2024-01-29 16:39:10,0.0
-111,399,-4297,99,-684,-168,2024-01-29 16:39:10,0.0
-180,610,-4161,64,-864,-187,2024-01-29 16:39:10,0.0
-360,768,-4283,-142,-864,-299,2024-01-29 16:39:10,0.0
-531,577,-3942,-122,-805,-450,2024-01-29 16:39:10,0.0
-887,-511,-4745,83,-316,-610,2024-01-29 16:39:10,0.0
-272,-2194,-4201,638,-560,-518,2024-01-29 16:39:10,0.0
401,-1146,-4233,1005,-192,-256,2024-01-29 16:39:10,0.0
-39,-1529,-4139,1132,233,20,2024-01-29 16:39:10,0.0
-607,-1397,-3926,910,-261,39,2024-01-29 16:39:10,0.0
-864,-2031,-3609,515,-412,171,2024-01-29 16:39:10,0.0
-442,-2310,-3454,1018,-424,80,2024-01-29 16:39:10,0.0
-113,-1280,-3327,681,103,273,2024-01-29 16:39:10,0.0
195,-283,-3117,360,0,334,2024-01-29 16:39:10,0.0
-682,-2204,-4919,255,691,48,2024-01-29 16:39:10,0.0
-420,-1196,-4103,-38,25,31,2024-01-29 16:39:10,0.0
-251,-1520,-4290,-523,542,138,2024-01-29 16:39:10,0.0
-31,-1778,-3633,-330,575,89,2024-01-29 16:39:10,0.0
-103,-1599,-3856,-354,636,377,2024-01-29 16:39:11,0.0
-179,558,-3768,-906,559,272,2024-01-29 16:39:11,0.0
-461,-372,-4156,-1442,495,262,2024-01-29 16:39:11,0.0
-756,10,-4279,-1564,441,457,2024-01-29 16:39:11,0.0
-759,-386,-3868,-1343,72,498,2024-01-29 16:39:11,0.0
191,-189,-3711,-1046,336,741,2024-01-29 16:39:11,0.0
1184,-748,-3912,-581,796,392,2024-01-29 16:39:11,0.0
1125,94,-3872,-141,833,241,2024-01-29 16:39:11,0.0
2037,-401,-4518,266,1244,184,2024-01-29 16:39:11,0.0
1384,270,-4654,229,1445,258,2024-01-29 16:39:11,0.0
1790,-325,-4309,93,1187,429,2024-01-29 16:39:11,0.0
2426,-500,-3852,329,1430,196,2024-01-29 16:39:11,0.0
2199,-537,-3245,363,1388,76,2024-01-29 16:39:11,0.0
2059,-302,-3520,483,1521,-171,2024-01-29 16:39:11,0.0
2921,-519,-3820,359,1826,-415,2024-01-29 16:39:11,0.0
2825,-416,-2937,383,2066,-575,2024-01-29 16:39:11,0.0
2994,436,-2749,25,807,-585,2024-01-29 16:39:11,0.0
4596,-206,-3190,-395,-812,-290,2024-01-29 16:39:12,0.0
4999,-308,-3413,-347,-1645,-263,2024-01-29 16:39:12,0.0
3225,-72,-3374,-180,-1946,-195,2024-01-29 16:39:12,0.0
3280,-270,-4020,25,-1794,4,2024-01-29 16:39:12,0.0
4075,0,-3022,213,-971,130,2024-01-29 16:39:12,0.0
2724,67,-3638,198,-404,33,2024-01-29 16:39:12,0.0
3545,344,-3874,-291,394,-104,2024-01-29 16:39:12,0.0
3280,-105,-3710,-234,840,72,2024-01-29 16:39:12,0.0
3570,-280,-3876,-121,1296,-31,2024-01-29 16:39:12,0.0
3451,-265,-3534,97,1447,-206,2024-01-29 16:39:12,0.0
3077,-232,-2853,162,1340,-230,2024-01-29 16:39:12,
2914,-78,-2278,203,1957,-137,2024-01-29 16:39:12,0.0
2829,371,-1516,-21,1768,-165,2024-01-29 16:39:12,0.0
2911,74,-1478,-193,1921,3,2024-01-29 16:39:12,0.0
2771,18,-1542,-220,1778,110,2024-01-29 16:39:12,0.0
2871,59,-391,-228,1177,250,2024-01-29 16:39:12,0.0
3592,-13,-280,0,1221,88,2024-01-29 16:39:12,0.0
3601,28,-472,2,1037,24,2024-01-29 16:39:12,0.0
4050,5,-457,-70,379,37,2024-01-29 16:39:13,0.0
4315,-196,295,-59,130,98,2024-01-29 16:39:13,0.0
4389,-30,-21,83,241,62,2024-01-29 16:39:13,0.0
4140,77,41,-52,42,36,2024-01-29 16:39:13,0.0
4028,59,-104,-108,-83,-7,2024-01-29 16:39:13,0.0
4018,21,-44,-155,-312,-63,2024-01-29 16:39:13,0.0
4407,-191,-125,-126,-425,-113,2024-01-29 16:39:13,0.0
4259,116,-181,-126,-585,-119,2024-01-29 16:39:13,0.0
4204,279,-203,-285,-790,-70,2024-01-29 16:39:13,0.0
4556,65,-324,-379,-593,17,2024-01-29 16:39:13,0.0
4547,-18,-683,-298,-340,72,2024-01-29 16:39:13,0.0
4568,-314,-991,35,68,13,2024-01-29 16:39:13,0.0
4230,-227,-643,112,-67,-83,2024-01-29 16:39:13,0.0
4374,277,-802,174,15,-85,2024-01-29 16:39:13,0.0
4440,323,-973,-18,-26,-19,2024-01-29 16:39:13,0.0
4126,11,-830,1,36,5,2024-01-29 16:39:13,0.0
4425,273,-717,-32,257,-6,2024-01-29 16:39:13,0.0
4318,293,-919,-74,200,5,2024-01-29 16:39:14,0.0
3944,-51,-630,-104,495,319,2024-01-29 16:39:14,0.0
3776,-79,-335,-197,1116,-79,2024-01-29 16:39:14,0.0
3073,-69,376,-206,1037,-635,2024-01-29 16:39:14,0.0
6483,1812,43,-428,-42,-323,2024-01-29 16:39:14,0.0
3410,-435,242,-175,-52,453,2024-01-29 16:39:14,0.0
4542,740,47,-267,15,40,2024-01-29 16:39:14,0.0
4022,159,-9,-219,252,-8,2024-01-29 16:39:14,0.0
4526,305,271,-92,-98,78,2024-01-29 16:39:14,0.0
4259,262,116,-118,128,-60,2024-01-29 16:39:14,0.0
4394,467,408,-253,-167,-26,2024-01-29 16:39:14,0.0
4271,360,63,-296,20,-51,2024-01-29 16:39:14,0.0
4272,213,98,-291,34,-82,2024-01-29 16:39:14,0.0
4266,235,140,-164,92,-102,2024-01-29 16:39:14,0.0
4157,288,157,-76,123,-94,2024-01-29 16:39:14,0.0
4127,295,62,-51,-53,-27,2024-01-29 16:39:14,0.0
4553,238,370,156,-160,-55,2024-01-29 16:39:14,0.0
4259,475,173,57,-80,-40,2024-01-29 16:39:14,0.0
4346,485,-21,30,-245,11,2024-01-29 16:39:15,0.0
4311,449,118,-53,-111,29,2024-01-29 16:39:15,0.0
4334,352,102,-72,-118,25,2024-01-29 16:39:15,0.0
4347,236,64,-32,-118,49,2024-01-29 16:39:15,0.0
4301,394,81,30,-109,49,2024-01-29 16:39:15,0.0
4026,289,-683,32,-6,134,2024-01-29 16:39:15,0.0
4206,199,-24,-68,-513,75,2024-01-29 16:39:15,0.0
4450,306,178,-8,320,92,2024-01-29 16:39:15,0.0
4596,231,-71,-47,18,31,2024-01-29 16:39:15,0.0
4478,347,268,-57,40,23,2024-01-29 16:39:15,0.0
4558,200,67,-104,414,68,2024-01-29 16:39:15,0.0
3942,278,91,-100,-135,32,2024-01-29 16:39:15,0.0
4586,77,-32,-29,-86,43,2024-01-29 16:39:15,0.0
4208,190,141,105,-37,53,2024-01-29 16:39:15,0.0
4340,184,39,129,-64,111,2024-01-29 16:39:15,0.0
4351,154,-140,148,3,81,2024-01-29 16:39:15,0.0
4402,252,-13,195,-74,64,2024-01-29 16:39:15,0.0
4262,236,17,177,-55,91,2024-01-29 16:39:16,0.0
4355,271,26,247,-57,92,2024-01-29 16:39:16,0.0
4369,160,-17,275,-196,114,2024-01-29 16:39:16,0.0
4365,299,-160,125,-40,54,2024-01-29 16:39:16,0.0
4396,10,14,171,6,24,2024-01-29 16:39:16,0.0
4285,-76,-22,226,67,28,2024-01-29 16:39:16,0.0
4429,384,-246,115,58,48,2024-01-29 16:39:16,0.0
4335,268,81,69,-131,76,2024-01-29 16:39:16,0.0
4351,168,-384,-136,-38,29,2024-01-29 16:39:16,0.0
4366,116,-129,-148,74,-51,2024-01-29 16:39:16,0.0
4275,328,52,-307,-104,-62,2024-01-29 16:39:16,0.0
4275,150,-94,-317,-120,-9,2024-01-29 16:39:16,0.0
4363,6,55,-308,-140,41,2024-01-29 16:39:16,0.0
4426,25,-124,-201,-69,49,2024-01-29 16:39:16,0.0
4375,53,30,-121,-74,34,2024-01-29 16:39:16,0.0
4323,64,-81,-79,-49,20,2024-01-29 16:39:17,0.0
4385,70,-30,-23,-9,15,2024-01-29 16:39:17,0.0
4348,111,-49,-12,40,18,2024-01-29 16:39:17,0.0
4348,123,1,16,48,6,2024-01-29 16:39:17,0.0
4345,108,-14,-28,26,15,2024-01-29 16:39:17,0.0
4496,105,50,-9,373,25,2024-01-29 16:39:17,0.0
4345,3,104,-7,314,32,2024-01-29 16:39:17,0.0
4304,50,158,60,201,41,2024-01-29 16:39:17,0.0
4332,-31,217,115,35,58,2024-01-29 16:39:17,0.0
4326,8,297,198,28,46,2024-01-29 16:39:17,0.0
4313,-86,250,304,70,51,2024-01-29 16:39:17,0.0
4329,-14,284,388,-16,76,2024-01-29 16:39:17,0.0
4271,84,256,423,-20,80,2024-01-29 16:39:17,0.0
4296,216,179,278,-37,74,2024-01-29 16:39:17,0.0
4345,88,163,163,-88,55,2024-01-29 16:39:17,0.0
4273,135,62,72,-43,30,2024-01-29 16:39:17,0.0
4221,-138,358,-14,-4,-24,2024-01-29 16:39:17,0.0
4494,99,55,-42,-198,-64,2024-01-29 16:39:17,0.0
4227,-123,54,-188,-101,-13,2024-01-29 16:39:17,0.0
4333,288,159,-121,-7,34,2024-01-29 16:39:17,0.0
4299,-174,155,83,-166,-19,2024-01-29 16:39:18,0.0
4460,-43,162,-71,-20,-14,2024-01-29 16:39:18,0.0
4373,301,128,-74,10,-39,2024-01-29 16:39:18,0.0
4292,-19,86,-119,-70,-56,2024-01-29 16:39:18,0.0
4306,85,2,-146,-32,-4,2024-01-29 16:39:18,0.0
4333,121,132,-194,-163,3,2024-01-29 16:39:18,
4374,10,89,-152,-88,-1,2024-01-29 16:39:18,0.0
4322,35,105,-106,-129,-6,2024-01-29 16:39:18,0.0
4410,80,46,-130,-58,12,2024-01-29 16:39:18,0.0
4375,141,70,-149,-34,23,2024-01-29 16:39:18,0.0
4421,-36,3,-186,49,-3,2024-01-29 16:39:18,0.0
4183,-32,-61,-98,-111,-45,2024-01-29 16:39:18,0.0
4449,13,58,-139,-24,-41,2024-01-29 16:39:18,0.0
4250,61,107,-139,-14,-24,2024-01-29 16:39:18,0.0
4262,77,96,-95,-171,-12,2024-01-29 16:39:18,0.0
4447,175,-90,-188,-86,-42,2024-01-29 16:39:18,0.0
4087,282,2,-211,-169,-56,2024-01-29 16:39:18,0.0
4463,299,92,-168,-165,-11,2024-01-29 16:39:19,0.0
4544,206,97,-18,-82,-34,2024-01-29 16:39:19,0.0
4320,255,138,82,-26,-14,2024-01-29 16:39:19,0.0
4370,324,105,47,-39,-5,2024-01-29 16:39:19,0.0
4390,381,79,150,68,36,2024-01-29 16:39:19,0.0
4420,354,248,130,142,27,2024-01-29 16:39:19,0.0
4455,225,-128,204,130,-4,2024-01-29 16:39:19,0.0
4116,93,-186,304,-32,27,2024-01-29 16:39:19,0.0
4246,-36,-272,335,-48,59,2024-01-29 16:39:19,0.0
4212,40,8,360,-62,7,2024-01-29 16:39:19,0.0
4498,91,-114,247,38,2,2024-01-29 16:39:19,0.0
4438,-42,36,130,58,63,2024-01-29 16:39:19,0.0
4217,127,-82,7,10,53,2024-01-29 16:39:19,0.0
4337,-36,-120,-165,108,71,2024-01-29 16:39:19,0.0
4365,17,197,-224,138,53,2024-01-29 16:39:19,0.0
4340,57,206,-292,28,15,2024-01-29 16:39:19,0.0
4461,-40,-122,-157,-27,27,2024-01-29 16:39:19,0.0
4159,-27,222,-231,-22,33,2024-01-29 16:39:19,0.0
4401,0,111,-214,17,10,2024-01-29 16:39:20,0.0
4418,-2,181,-89,35,15,2024-01-29 16:39:20,0.0
4319,-68,-41,-73,-67,19,2024-01-29 16:39:20,0.0
4291,156,174,28,54,33,2024-01-29 16:39:20,0.0
4377,248,309,-115,60,-1,2024-01-29 16:39:20,0.0
4261,127,203,-113,14,-10,2024-01-29 16:39:20,0.0
4287,111,143,-130,-74,-9,2024-01-29 16:39:20,0.0
4385,119,206,-126,-79,-14,2024-01-29 16:39:20,0.0
4350,29,193,-103,-75,0,2024-01-29 16:39:20,0.0
4313,56,256,-54,-15,-1,2024-01-29 16:39:20,0.0
4322,122,263,-82,-35,3,2024-01-29 16:39:20,0.0
4268,106,150,-58,-51,7,2024-01-29 16:39:20,0.0
4352,77,194,-53,-69,17,2024-01-29 16:39:20,0.0
4329,165,132,-41,-20,15,2024-01-29 16:39:20,0.0
4355,104,179,-57,-100,10,2024-01-29 16:39:20,0.0
4341,57,228,-50,-8,9,2024-01-29 16:39:20,0.0
4433,110,232,-72,-55,-6,2024-01-29 16:39:20,0.0
4319,39,234,-82,-52,-4,2024-01-29 16:39:21,0.0
4279,-1,367,-42,17,13,2024-01-29 16:39:21,0.0
4516,95,374,0,58,12,2024-01-29 16:39:21,0.0
4149,57,597,-15,112,21,2024-01-29 16:39:21,0.0
4300,140,571,44,384,44,2024-01-29 16:39:21,0.0
4257,-15,886,-74,-57,36,2024-01-29 16:39:21,0.0
4075,27,855,-72,-81,7,2024-01-29 16:39:21,0.0
4152,78,790,-216,-165,10,2024-01-29 16:39:21,0.0
3741,-13,632,-157,-105,8,2024-01-29 16:39:21,0.0
3541,-53,660,-113,-336,22,2024-01-29 16:39:21,0.0
3618,-42,562,-66,-285,10,2024-01-29 16:39:21,0.0
2957,-84,648,-181,-488,71,2024-01-29 16:39:21,0.0
2748,-188,254,12,-869,56,2024-01-29 16:39:21,0.0
4463,134,-12,-25,-892,1,2024-01-29 16:39:21,0.0
3802,-190,493,-106,-1036,85,2024-01-29 16:39:21,0.0
3290,-240,655,171,-979,-64,2024-01-29 16:39:21,0.0
2460,393,46,9,-921,-99,2024-01-29 16:39:21,0.0
2659,-133,-221,-6,-1462,-136,2024-01-29 16:39:21,0.0
3559,-478,-895,402,-1940,10,2024-01-29 16:39:22,0.0
4128,542,-5652,732,-3914,-161,2024-01-29 16:39:22,0.0
9296,153,-7748,-531,-4327,95,2024-01-29 16:39:22,0.0
1863,1031,1447,-667,-3865,-445,2024-01-29 16:39:22,0.0
-859,-1060,-1078,-273,-4339,50,2024-01-29 16:39:22,0.0
2650,-507,-774,-465,-2944,-309,2024-01-29 16:39:22,0.0
-1075,-1530,-10115,1110,-202,-352,2024-01-29 16:39:22,0.0
944,2249,-11657,1335,3014,-341,2024-01-29 16:39:22,0.0
-11709,-393,-8400,-381,1241,230,2024-01-29 16:39:22,0.0
1014,491,-6544,64,-269,104,2024-01-29 16:39:22,0.0
-1016,291,-4384,-480,-75,59,2024-01-29 16:39:22,0.0
189,-229,-3691,-359,-137,-2,2024-01-29 16:39:22,0.0
-184,-573,-3379,75,71,7,2024-01-29 16:39:22,0.0
490,197,-4270,107,338,-17,2024-01-29 16:39:22,0.0
461,53,-4786,-58,516,85,2024-01-29 16:39:22,0.0
146,124,-4570,-102,-126,-80,2024-01-29 16:39:22,0.0
1074,4,-4103,-113,-364,-38,2024-01-29 16:39:22,0.0
1008,-126,-3797,-74,97,17,2024-01-29 16:39:23,0.0
570,99,-4091,7,-105,-42,2024-01-29 16:39:23,0.0
545,67,-4356,53,-143,-32,2024-01-29 16:39:23,0.0
464,93,-4018,-7,-251,-7,2024-01-29 16:39:23,0.0
309,-9,-4031,-65,-155,-2,2024-01-29 16:39:23,0.0
335,-103,-4072,-64,-7,9,2024-01-29 16:39:23,0.0
526,-59,-4045,-34,43,-1,2024-01-29 16:39:23,0.0
297,73,-4313,-88,-78,5,2024-01-29 16:39:23,0.0
403,22,-4329,-32,-20,25,2024-01-29 16:39:23,0.0
439,36,-4177,-30,-64,2,2024-01-29 16:39:23,0.0
456,57,-4178,12,-81,5,2024-01-29 16:39:23,0.0
486,22,-4059,-71,-103,4,2024-01-29 16:39:23,0.0
327,112,-4241,-54,-73,15,2024-01-29 16:39:23,0.0
369,25,-4199,-42,-119,8,2024-01-29 16:39:23,0.0
393,-18,-4220,-99,-64,30,2024-01-29 16:39:23,0.0
361,26,-4205,-41,-117,3,2024-01-29 16:39:23,0.0
305,-40,-4248,-92,14,28,2024-01-29 16:39:23,0.0
387,97,-4100,-56,-14,19,2024-01-29 16:39:23,0.0
417,51,-4058,-34,38,21,2024-01-29 16:39:24,
368,148,-4261,-51,66,17,2024-01-29 16:39:24,0.0
457,8,-4138,-64,28,10,2024-01-29 16:39:24,0.0
391,129,-4261,-57,-27,1,2024-01-29 16:39:24,0.0
403,71,-4298,-33,91,11,2024-01-29 16:39:24,0.0
530,-9,-4255,-61,88,9,2024-01-29 16:39:24,0.0
422,93,-4138,-44,33,-1,2024-01-29 16:39:24,0.0
516,77,-4198,-79,49,14,2024-01-29 16:39:24,0.0
503,79,-4184,-75,4,14,2024-01-29 16:39:24,0.0
481,152,-4238,-58,-72,4,2024-01-29 16:39:24,0.0
514,114,-4210,-38,-39,3,2024-01-29 16:39:24,0.0
502,122,-4171,-48,-67,21,2024-01-29 16:39:24,0.0
513,92,-4180,-50,-61,15,2024-01-29 16:39:24,0.0
487,116,-4200,-17,-57,8,2024-01-29 16:39:24,0.0
448,117,-4164,-44,-59,11,2024-01-29 16:39:24,0.0
478,98,-4138,-42,10,12,2024-01-29 16:39:24,0.0
483,84,-4167,-50,-43,6,2024-01-29 16:39:24,0.0
474,149,-4164,-59,-31,16,2024-01-29 16:39:24,0.0
448,128,-4214,-11,-36,5,2024-01-29 16:39:25,0.0
496,140,-4173,-39,-5,13,2024-01-29 16:39:25,0.0
452,95,-4189,-28,-14,5,2024-01-29 16:39:25,0.0
458,76,-4194,-46,-24,8,2024-01-29 16:39:25,0.0
473,46,-4183,-32,-40,6,2024-01-29 16:39:25,0.0
491,88,-4194,-30,-36,6,2024-01-29 16:39:25,0.0
409,103,-4225,-38,-31,1,2024-01-29 16:39:25,0.0
471,119,-4175,-32,-19,9,2024-01-29 16:39:25,0.0
479,115,-4221,-36,-64,3,2024-01-29 16:39:25,0.0
469,91,-4166,-47,-30,12,2024-01-29 16:39:25,0.0
421,116,-4246,-22,-21,3,2024-01-29 16:39:25,0.0
488,108,-4178,-36,-5,16,2024-01-29 16:39:25,0.0
440,94,-4151,-56,-19,10,2024-01-29 16:39:25,0.0
455,122,-4177,-38,-50,4,2024-01-29 16:39:25,0.0
460,89,-4202,-55,-62,12,2024-01-29 16:39:25,0.0
449,121,-4211,-36,-54,7,2024-01-29 16:39:25,0.0
420,106,-4238,-48,-24,12,2024-01-29 16:39:25,0.0
464,102,-4183,-39,-19,11,2024-01-29 16:39:26,0.0
435,94,-4197,-30,-12,12,2024-01-29 16:39:26,0.0
465,89,-4179,-27,-32,13,2024-01-29 16:39:26,0.0
444,79,-4180,-17,-53,5,2024-01-29 16:39:26,0.0
425,76,-4189,-30,-30,9,2024-01-29 16:39:26,0.0
462,107,-4187,-42,-32,7,2024-01-29 16:39:26,0.0
440,111,-4164,-45,-40,2,2024-01-29 16:39:26,0.0
441,72,-4208,-41,-28,2,2024-01-29 16:39:26,0.0
450,121,-4216,-46,-12,10,2024-01-29 16:39:26,0.0
434,96,-4235,-35,16,9,2024-01-29 16:39:26,0.0
471,74,-4201,-61,9,10,2024-01-29 16:39:26,0.0
454,101,-4226,-34,-23,6,2024-01-29 16:39:26,0.0
463,92,-4209,-40,-29,7,2024-01-29 16:39:26,0.0
464,99,-4159,-23,7,9,2024-01-29 16:39:26,0.0
470,100,-4237,-33,-14,11,2024-01-29 16:39:26,0.0
537,95,-4113,-21,-27,6,2024-01-29 16:39:26,0.0
383,99,-4203,-39,5,7,2024-01-29 16:39:26,0.0
490,104,-4186,-38,-12,7,2024-01-29 16:39:27,0.0
502,75,-4172,-45,-3,15,2024-01-29 16:39:27,0.0
499,110,-4222,-54,-12,11,2024-01-29 16:39:27,0.0
538,108,-4141,-40,-45,8,2024-01-29 16:39:27,0.0
503,123,-4139,-52,-31,12,2024-01-29 16:39:27,0.0
473,105,-4173,-30,-45,2,2024-01-29 16:39:27,0.0
429,115,-4230,-27,21,1,2024-01-29 16:39:27,0.0
476,110,-4155,-36,-23,2,2024-01-29 16:39:27,0.0
509,83,-4220,-42,-42,7,2024-01-29 16:39:27,0.0
467,121,-4199,-79,-50,16,2024-01-29 16:39:27,0.0
457,198,-4193,-109,-8,36,2024-01-29 16:39:27,0.0
644,73,-4153,-66,-46,40,2024-01-29 16:39:27,0.0
500,94,-4083,-40,-32,16,2024-01-29 16:39:27,0.0
541,123,-4023,-42,-30,1,2024-01-29 16:39:27,0.0
496,146,-4164,-34,-19,23,2024-01-29 16:39:27,0.0
511,126,-4294,-14,-9,33,2024-01-29 16:39:27,0.0
476,80,-4287,-50,11,26,2024-01-29 16:39:27,0.0
533,122,-4253,-59,4,11,2024-01-29 16:39:27,0.0
512,133,-4167,-22,-9,5,2024-01-29 16:39:28,0.0
546,139,-4178,-21,-46,4,2024-01-29 16:39:28,0.0
621,159,-4212,-26,20,13,2024-01-29 16:39:28,0.0
539,97,-4215,-39,-38,7,2024-01-29 16:39:28,0.0
539,97,-4217,-17,-29,15,2024-01-29 16:39:28,0.0
538,103,-4207,-37,-16,5,2024-01-29 16:39:28,0.0
557,101,-4161,-33,-29,6,2024-01-29 16:39:28,0.0
572,103,-4175,-42,-32,9,2024-01-29 16:39:28,0.0
513,108,-4218,-40,-39,6,2024-01-29 16:39:28,0.0
565,91,-4184,-31,-34,3,2024-01-29 16:39:28,0.0
543,125,-4173,-36,-16,14,2024-01-29 16:39:28,0.0
549,133,-4183,-40,-23,13,2024-01-29 16:39:28,0.0
528,123,-4164,-42,-20,11,2024-01-29 16:39:28,0.0
558,93,-4159,-52,-11,11,2024-01-29 16:39:28,0.0
574,113,-4218,-26,-60,2,2024-01-29 16:39:28,0.0
543,100,-4206,-48,-29,8,2024-01-29 16:39:28,0.0
552,98,-4213,-28,-39,6,2024-01-29 16:39:28,0.0
532,100,-4227,-47,-17,14,2024-01-29 16:39:29,0.0
525,92,-4213,-49,-29,12,2024-01-29 16:39:29,0.0
546,80,-4195,-40,-32,13,2024-01-29 16:39:29,0.0
536,90,-4168,-46,-26,8,2024-01-29 16:39:29,0.0
543,113,-4197,-53,-17,12,2024-01-29 16:39:29,0.0
526,132,-4159,-51,-9,10,2024-01-29 16:39:29,0.0
533,138,-4197,-52,29,22,2024-01-29 16:39:29,0.0
581,84,-4135,-42,-35,9,2024-01-29 16:39:29,0.0
557,122,-4182,-47,-52,9,2024-01-29 16:39:29,0.0
574,130,-4239,-27,-33,8,2024-01-29 16:39:29,0.0
524,133,-4238,-30,14,9,2024-01-29 16:39:29,0.0
523,129,-4225,-44,-16,10,2024-01-29 16:39:29,0.0
639,129,-4058,-61,-30,15,2024-01-29 16:39:29,0.0
597,143,-4159,-30,-52,-10,2024-01-29 16:39:29,
552,127,-4196,-24,-100,4,2024-01-29 16:39:29,0.0
542,128,-4189,-27,-79,8,2024-01-29 16:39:29,0.0
533,113,-4287,-8,39,13,2024-01-29 16:39:29,0.0
565,95,-4199,-32,-20,11,2024-01-29 16:39:29,0.0
472,79,-4148,-11,-30,-1,2024-01-29 16:39:30,0.0
543,114,-4240,-33,-65,8,2024-01-29 16:39:30,0.0
531,103,-4208,-44,-53,9,2024-01-29 16:39:30,0.0
535,95,-4181,-38,-46,14,2024-01-29 16:39:30,0.0
518,86,-4181,-50,-46,5,2024-01-29 16:39:30,0.0
524,89,-4113,-45,-66,3,2024-01-29 16:39:30,0.0
534,125,-4189,-23,-74,-7,2024-01-29 16:39:30,0.0
509,119,-4173,-12,-80,-7,2024-01-29 16:39:30,0.0
491,92,-4168,-27,-65,-3,2024-01-29 16:39:30,0.0
478,65,-4246,-4,-72,1,2024-01-29 16:39:30,0.0
460,32,-4278,-18,-50,-6,2024-01-29 16:39:30,0.0
480,74,-4216,-28,-50,4,2024-01-29 16:39:30,0.0
467,79,-4261,-28,-19,6,2024-01-29 16:39:30,0.0
451,85,-4141,-48,-19,14,2024-01-29 16:39:30,0.0
466,51,-4204,-11,-36,8,2024-01-29 16:39:30,0.0
467,34,-4139,-33,-49,13,2024-01-29 16:39:30,0.0
467,61,-4225,-38,-31,10,2024-01-29 16:39:30,0.0
466,42,-4157,-43,-18,10,2024-01-29 16:39:31,0.0
448,63,-4153,-33,-30,5,2024-01-29 16:39:31,0.0
472,69,-4132,-53,-9,18,2024-01-29 16:39:31,0.0
450,73,-4215,-42,-49,5,2024-01-29 16:39:31,0.0
439,69,-4172,-37,-35,6,2024-01-29 16:39:31,0.0
458,64,-4139,-20,-63,6,2024-01-29 16:39:31,0.0
472,37,-4118,-13,-87,6,2024-01-29 16:39:31,0.0
427,28,-4232,-15,-95,-1,2024-01-29 16:39:31,0.0
435,56,-4304,-5,-59,-3,2024-01-29 16:39:31,0.0
413,62,-4197,-28,-22,6,2024-01-29 16:39:31,0.0
422,28,-4150,-28,-40,2,2024-01-29 16:39:31,0.0
396,8,-4229,-11,-43,10,2024-01-29 16:39:31,0.0
397,43,-4224,-27,-30,6,2024-01-29 16:39:31,0.0
417,29,-4244,-53,29,9,2024-01-29 16:39:31,0.0
450,29,-4151,-33,-6,4,2024-01-29 16:39:31,0.0
411,7,-4184,-43,-55,9,2024-01-29 16:39:31,0.0
402,19,-4230,-33,-90,9,2024-01-29 16:39:31,0.0
389,32,-4221,-37,-50,8,2024-01-29 16:39:31,0.0
390,26,-4186,-33,-44,8,2024-01-29 16:39:32,0.0
379,21,-4197,-26,-48,5,2024-01-29 16:39:32,0.0
368,16,-4232,10,-65,3,2024-01-29 16:39:32,0.0
345,-18,-4207,-21,-66,11,2024-01-29 16:39:32,0.0
357,19,-4203,-26,-66,3,2024-01-29 16:39:32,0.0
355,-3,-4238,-13,-70,0,2024-01-29 16:39:32,0.0
378,0,-4184,-25,-76,9,2024-01-29 16:39:32,0.0
322,3,-4298,-39,-64,7,2024-01-29 16:39:32,0.0
301,-2,-4118,-73,-15,9,2024-01-29 16:39:32,0.0
313,19,-4190,-58,-15,14,2024-01-29 16:39:32,0.0
354,-9,-4177,-37,2,12,2024-01-29 16:39:32,0.0
385,-24,-4248,-16,47,15,2024-01-29 16:39:32,0.0
744,228,-4686,-30,843,121,2024-01-29 16:39:32,0.0
-547,364,-5361,272,-146,21,2024-01-29 16:39:32,0.0
-450,871,-4412,-31,-808,-82,2024-01-29 16:39:32,0.0
-454,540,-4128,26,-944,-325,2024-01-29 16:39:32,0.0
-508,560,-4129,112,-849,-568,2024-01-29 16:39:32,0.0
-447,-1166,-4891,61,-526,-683,2024-01-29 16:39:33,0.0
4,-1644,-4267,971,-505,-596,2024-01-29 16:39:33,0.0
358,-942,-4113,895,-320,-402,2024-01-29 16:39:33,0.0
-463,-2142,-4327,1056,118,-348,2024-01-29 16:39:33,0.0
-291,-1415,-4117,1048,-56,-97,2024-01-29 16:39:33,0.0
-582,-1800,-3720,616,-348,241,2024-01-29 16:39:33,0.0
-495,-2135,-3263,743,-360,294,2024-01-29 16:39:33,0.0
-7,-1507,-2724,1009,-386,18,2024-01-29 16:39:33,0.0
417,-1645,-3453,98,511,41,2024-01-29 16:39:33,0.0
-509,-2099,-4206,629,509,129,2024-01-29 16:39:33,0.0
-261,-1484,-3967,26,469,308,2024-01-29 16:39:33,0.0
-94,-1116,-4307,-323,445,397,2024-01-29 16:39:33,0.0
145,-1069,-3591,-624,714,303,2024-01-29 16:39:33,0.0
48,-1122,-4040,-1154,1160,544,2024-01-29 16:39:33,0.0
32,-505,-3746,-1732,746,733,2024-01-29 16:39:33,0.0
-637,-847,-4558,-1501,696,707,2024-01-29 16:39:33,0.0
-662,-326,-3913,-1086,87,631,2024-01-29 16:39:33,0.0
-435,238,-4156,-1030,-159,522,2024-01-29 16:39:33,0.0
-466,925,-4145,-1171,-162,471,2024-01-29 16:39:34,0.0
102,-23,-4051,-1209,-183,411,2024-01-29 16:39:34,0.0
933,328,-3428,-833,630,107,2024-01-29 16:39:34,0.0
1592,207,-3763,-493,739,36,2024-01-29 16:39:34,0.0
1706,-563,-4608,19,890,-164,2024-01-29 16:39:34,0.0
1851,302,-4689,600,1107,-110,2024-01-29 16:39:34,0.0
1896,270,-4427,488,1126,87,2024-01-29 16:39:34,0.0
1843,221,-3963,435,1412,-20,2024-01-29 16:39:34,0.0
1969,-67,-3722,553,1391,-32,2024-01-29 16:39:34,0.0
2082,-122,-3683,573,1403,-101,2024-01-29 16:39:34,0.0
2004,6,-3642,559,1666,-301,2024-01-29 16:39:34,0.0
2537,82,-3562,306,1531,-446,2024-01-29 16:39:34,0.0
3408,-19,-3135,-64,2505,-509,2024-01-29 16:39:34,0.0
3501,397,-2053,-23,1365,-133,2024-01-29 16:39:34,0.0
4046,105,-2891,-343,-211,-32,2024-01-29 16:39:34,0.0
5240,141,-3029,-14,-1397,-180,2024-01-29 16:39:34,0.0
4041,-65,-3068,129,-1975,-329,2024-01-29 16:39:34,0.0
4201,285,-3570,320,-1867,68,2024-01-29 16:39:35,0.0
4573,121,-2978,141,-1152,138,2024-01-29 16:39:35,0.0
3354,179,-3259,-109,-339,66,2024-01-29 16:39:35,0.0
3369,-68,-3357,-16,191,27,2024-01-29 16:39:35,0.0
3087,20,-3240,52,555,28,2024-01-29 16:39:35,0.0
4151,92,-3548,169,902,64,2024-01-29 16:39:35,0.0
4361,-93,-3719,27,1337,12,2024-01-29 16:39:35,0.0
3927,117,-3316,120,1628,102,2024-01-29 16:39:35,0.0
3442,-149,-2931,155,1485,89,2024-01-29 16:39:35,
2657,-505,-1854,87,1445,-14,2024-01-29 16:39:35,0.0
1991,-668,-1290,196,1096,-2,2024-01-29 16:39:35,0.0
2385,55,-1614,215,1092,14,2024-01-29 16:39:35,0.0
2260,423,-972,-183,1258,-7,2024-01-29 16:39:35,0.0
1792,-427,-964,-395,835,-3,2024-01-29 16:39:35,0.0
3972,-371,-1296,-152,600,162,2024-01-29 16:39:35,0.0
4888,-327,-1229,-315,519,17,2024-01-29 16:39:35,0.0
4455,-761,-912,174,262,6,2024-01-29 16:39:35,0.0
2892,-146,-369,157,-246,-63,2024-01-29 16:39:35,0.0
4271,339,-774,-12,-184,-32,2024-01-29 16:39:36,0.0
4985,402,-1001,-171,-45,-6,2024-01-29 16:39:36,0.0
4605,-256,36,-31,119,-90,2024-01-29 16:39:36,0.0
3681,-59,-502,316,190,-60,2024-01-29 16:39:36,0.0
4790,-125,-768,569,55,-39,2024-01-29 16:39:36,0.0
3953,-203,-909,442,-34,-93,2024-01-29 16:39:36,0.0
4043,110,-915,498,-130,3,2024-01-29 16:39:36,0.0
4400,-258,-655,230,-320,-149,2024-01-29 16:39:36,0.0
4357,46,-691,206,130,-56,2024-01-29 16:39:36,0.0
4217,-86,-736,-79,37,-18,2024-01-29 16:39:36,0.0
4256,-336,-667,-33,-102,10,2024-01-29 16:39:36,0.0
4264,-71,-730,-43,-61,0,2024-01-29 16:39:36,0.0
4320,-110,-658,-8,35,13,2024-01-29 16:39:36,0.0
4245,-162,-682,-18,43,20,2024-01-29 16:39:36,0.0
4310,-84,-771,-20,94,19,2024-01-29 16:39:36,0.0
4282,-106,-717,-81,94,24,2024-01-29 16:39:36,0.0
4302,-60,-722,-132,26,35,2024-01-29 16:39:36,0.0
4302,-131,-895,-193,117,34,2024-01-29 16:39:37,0.0
4253,-73,-569,-221,36,19,2024-01-29 16:39:37,0.0
4377,-179,-579,-158,31,21,2024-01-29 16:39:37,0.0
4259,-200,-692,-106,0,27,2024-01-29 16:39:37,0.0
4295,-216,-436,-40,-16,0,2024-01-29 16:39:37,0.0
4339,-202,-607,34,42,-15,2024-01-29 16:39:37,0.0
4406,-105,-697,72,19,1,2024-01-29 16:39:37,0.0
4256,-89,-519,76,5,0,2024-01-29 16:39:37,0.0
4372,-88,-496,84,-29,1,2024-01-29 16:39:37,0.0
4159,-209,-683,60,-79,13,2024-01-29 16:39:37,0.0
4256,-158,-522,65,-121,0,2024-01-29 16:39:37,0.0
4345,-61,-508,0,-95,24,2024-01-29 16:39:37,0.0
4290,-147,-545,-17,-51,22,2024-01-29 16:39:37,0.0
4322,-139,-515,-35,-77,22,2024-01-29 16:39:37,0.0
4303,-114,-557,-45,-32,24,2024-01-29 16:39:37,0.0
4391,-161,-533,-81,-39,20,2024-01-29 16:39:37,0.0
4357,-140,-536,-82,36,24,2024-01-29 16:39:37,0.0
4298,-60,-410,-94,73,24,2024-01-29 16:39:38,0.0
4430,-220,-501,-92,238,11,2024-01-29 16:39:38,0.0
4402,-106,-391,-93,350,41,2024-01-29 16:39:38,0.0
4442,-95,-437,-141,172,4,2024-01-29 16:39:38,0.0
4152,-196,-434,-192,235,13,2024-01-29 16:39:38,0.0
4230,-190,-263,-162,56,-29,2024-01-29 16:39:38,0.0
4377,-132,-40,-181,22,14,2024-01-29 16:39:38,0.0
4355,-65,-203,-167,95,38,2024-01-29 16:39:38,0.0
4315,-221,-285,-147,-26,54,2024-01-29 16:39:38,0.0
4476,-148,-251,-99,322,52,2024-01-29 16:39:38,0.0
4082,-117,-129,-134,453,-20,2024-01-29 16:39:38,0.0
4333,-250,3,-138,7,55,2024-01-29 16:39:38,0.0
4242,-178,50,-105,-72,9,2024-01-29 16:39:38,0.0
4330,-253,-13,-115,-7,5,2024-01-29 16:39:38,0.0
4348,-76,60,-128,-25,-6,2024-01-29 16:39:38,0.0
4407,-237,35,-110,67,-20,2024-01-29 16:39:38,0.0
4266,-152,40,-99,170,-111,2024-01-29 16:39:38,0.0
4353,-154,21,-102,135,-80,2024-01-29 16:39:38,0.0
4117,-160,252,-53,329,-74,2024-01-29 16:39:39,0.0
4381,-94,274,-17,437,14,2024-01-29 16:39:39,0.0
4439,-82,333,-8,214,62,2024-01-29 16:39:39,0.0
4344,-96,293,-10,113,139,2024-01-29 16:39:39,0.0
4315,-194,362,5,143,19,2024-01-29 16:39:39,0.0
4279,-106,420,-5,34,45,2024-01-29 16:39:39,0.0
4183,-242,468,-11,92,61,2024-01-29 16:39:39,0.0
4284,-156,460,-26,-34,49,2024-01-29 16:39:40,0.0
4301,-201,437,-25,-40,39,2024-01-29 16:39:40,0.0
4223,-259,377,-39,-135,83,2024-01-29 16:39:40,0.0
4183,-177,342,-28,-101,21,2024-01-29 16:39:40,0.0
4024,-186,327,-22,-53,71,2024-01-29 16:39:40,0.0
4581,-294,357,-47,-29,20,2024-01-29 16:39:40,0.0
4415,-188,377,-42,7,23,2024-01-29 16:39:40,0.0
4582,-227,440,-28,40,79,2024-01-29 16:39:40,0.0
4367,-194,432,-56,133,83,2024-01-29 16:39:40,0.0
4372,-261,303,-24,11,44,2024-01-29 16:39:41,0.0
4315,-248,339,-17,12,21,2024-01-29 16:39:41,0.0
4322,-275,315,-23,27,7,2024-01-29 16:39:41,0.0
4332,-283,408,-10,8,2,2024-01-29 16:39:41,0.0
4329,-275,357,3,-23,11,2024-01-29 16:39:41,0.0
4335,-288,488,9,-94,-6,2024-01-29 16:39:41,0.0
4315,-248,358,15,-28,-21,2024-01-29 16:39:41,0.0
4299,-255,342,5,-52,-17,2024-01-29 16:39:41,0.0
4312,-213,274,-20,-49,3,2024-01-29 16:39:41,0.0
4309,-173,221,-47,-86,-14,2024-01-29 16:39:41,0.0
4284,-236,319,-85,-189,12,2024-01-29 16:39:41,0.0
4298,-289,247,-77,-194,-16,2024-01-29 16:39:41,0.0
4315,-245,192,-25,-189,-24,2024-01-29 16:39:41,0.0
4313,-85,110,-51,-246,17,2024-01-29 16:39:41,0.0
4359,-150,48,-66,-174,51,2024-01-29 16:39:41,0.0
4334,-152,35,-57,-238,39,2024-01-29 16:39:41,0.0
4368,-291,-12,-60,-148,6,2024-01-29 16:39:41,0.0
4282,-142,-27,-6,-163,-14,2024-01-29 16:39:42,0.0
4475,-361,-60,-4,-50,14,2024-01-29 16:39:42,0.0
4316,-218,-105,-22,47,46,2024-01-29 16:39:42,0.0
4246,-129,119,-104,89,50,2024-01-29 16:39:42,0.0
4418,-335,12,-48,13,-7,2024-01-29 16:39:42,0.0
4272,-282,-49,-24,-25,-13,2024-01-29 16:39:42,
4390,-171,-30,44,14,-8,2024-01-29 16:39:42,0.0
4383,-272,-71,-25,142,35,2024-01-29 16:39:42,0.0
4274,-242,63,8,17,36,2024-01-29 16:39:42,0.0
4406,-131,85,-27,127,34,2024-01-29 16:39:42,0.0
4361,-178,120,-40,138,21,2024-01-29 16:39:42,0.0
4364,-244,175,-114,138,12,2024-01-29 16:39:42,0.0
4237,-321,303,-115,102,17,2024-01-29 16:39:42,0.0
4467,-224,116,-48,-25,18,2024-01-29 16:39:42,0.0
4404,-212,75,-162,-21,5,2024-01-29 16:39:42,0.0
4254,-414,243,-106,21,19,2024-01-29 16:39:42,0.0
4321,-233,251,-106,-49,8,2024-01-29 16:39:42,0.0
4298,-355,255,-46,-80,1,2024-01-29 16:39:42,0.0
4401,-188,155,-64,-117,-14,2024-01-29 16:39:43,0.0
4312,-303,192,-90,-20,-3,2024-01-29 16:39:43,0.0
4385,-293,233,-85,-68,-16,2024-01-29 16:39:43,0.0
4371,-262,169,-68,49,-7,2024-01-29 16:39:43,0.0
4268,-281,207,-68,2,-7,2024-01-29 16:39:43,0.0
4366,-222,178,-68,-17,-18,2024-01-29 16:39:43,0.0
4305,-258,185,-83,-40,-6,2024-01-29 16:39:43,0.0
4322,-250,179,-82,-56,-5,2024-01-29 16:39:43,0.0
4301,-215,275,-80,-34,6,2024-01-29 16:39:43,0.0
4268,-189,184,-83,14,-3,2024-01-29 16:39:43,0.0
4383,-192,131,-83,-63,3,2024-01-29 16:39:43,0.0
4320,-234,90,-67,-40,2,2024-01-29 16:39:43,0.0
4334,-193,218,-66,-21,6,2024-01-29 16:39:43,0.0
4348,-197,220,-72,-12,2,2024-01-29 16:39:43,0.0
4321,-248,231,-60,-14,4,2024-01-29 16:39:43,0.0
4369,-257,238,-52,-6,6,2024-01-29 16:39:43,0.0
4293,-243,282,-31,-18,5,2024-01-29 16:39:43,0.0
4401,-267,427,-11,-39,10,2024-01-29 16:39:44,0.0
4150,-175,511,-39,-26,-12,2024-01-29 16:39:44,0.0
4346,-226,594,-59,137,17,2024-01-29 16:39:44,0.0
4197,-288,659,-116,89,25,2024-01-29 16:39:44,0.0
4218,-222,746,-124,-20,20,2024-01-29 16:39:44,0.0
4052,-232,871,-190,-204,-3,2024-01-29 16:39:44,0.0
4078,-251,673,-174,-304,-7,2024-01-29 16:39:44,0.0
3872,-132,391,-221,-439,13,2024-01-29 16:39:44,0.0
3145,-209,353,-254,-565,73,2024-01-29 16:39:44,0.0
3105,-330,41,-104,-678,-47,2024-01-29 16:39:44,0.0
3598,-272,396,-81,-556,3,2024-01-29 16:39:44,0.0
3859,-43,75,-244,-965,77,2024-01-29 16:39:44,0.0
3973,-461,173,-163,-706,45,2024-01-29 16:39:44,0.0
1981,-240,-44,-35,-667,-155,2024-01-29 16:39:44,0.0
1947,-178,-189,-207,-1584,-32,2024-01-29 16:39:44,0.0
1427,-234,-327,-174,-2074,-171,2024-01-29 16:39:44,0.0
3631,-997,-1553,584,-3019,68,2024-01-29 16:39:44,0.0
4152,-369,-5296,544,-3785,-124,2024-01-29 16:39:44,0.0
9517,1510,-14432,-397,-6198,161,2024-01-29 16:39:45,0.0
1815,-473,1097,-888,-1350,-361,2024-01-29 16:39:45,0.0
2288,-87,-692,-458,-1662,-156,2024-01-29 16:39:45,0.0
-645,-755,-529,-923,-1594,-259,2024-01-29 16:39:45,0.0
-1146,-510,-2652,-22,-325,-597,2024-01-29 16:39:45,0.0
662,1142,-11303,1523,3066,-169,2024-01-29 16:39:45,0.0
-4966,-3525,-12998,-632,2629,538,2024-01-29 16:39:45,0.0
-1320,-329,-6110,163,-294,-47,2024-01-29 16:39:45,0.0
9,-78,-4113,-341,1321,152,2024-01-29 16:39:45,0.0
-173,-272,-3125,-299,368,131,2024-01-29 16:39:45,0.0
223,-109,-3304,-84,84,23,2024-01-29 16:39:45,0.0
562,-67,-4453,238,352,37,2024-01-29 16:39:45,0.0
500,-73,-4731,50,378,57,2024-01-29 16:39:45,0.0
8,-103,-4474,-111,75,-48,2024-01-29 16:39:45,0.0
641,-79,-4263,-99,-241,-111,2024-01-29 16:39:45,0.0
1225,-109,-3951,29,-174,-73,2024-01-29 16:39:45,0.0
590,70,-3916,9,-21,-8,2024-01-29 16:39:45,0.0
532,24,-4221,-66,-76,-7,2024-01-29 16:39:46,0.0
606,-124,-4129,-30,-49,37,2024-01-29 16:39:46,0.0
518,-98,-4205,-11,-24,1,2024-01-29 16:39:46,0.0
520,-89,-4221,-45,-80,0,2024-01-29 16:39:46,0.0
453,-167,-4374,-65,-60,-2,2024-01-29 16:39:46,0.0
489,-66,-4216,-179,59,16,2024-01-29 16:39:46,0.0
495,-42,-4181,-51,43,20,2024-01-29 16:39:46,0.0
497,7,-4223,-95,-12,49,2024-01-29 16:39:46,0.0
537,-26,-4212,-82,-125,26,2024-01-29 16:39:46,0.0
513,-71,-4165,-31,-78,25,2024-01-29 16:39:46,0.0
472,-80,-4206,23,-9,-9,2024-01-29 16:39:46,0.0
502,-38,-4179,-51,-48,9,2024-01-29 16:39:46,0.0
490,-53,-4237,-49,-6,15,2024-01-29 16:39:46,0.0
524,-35,-4121,-39,-65,33,2024-01-29 16:39:46,0.0
467,-31,-4206,-33,-78,-3,2024-01-29 16:39:46,0.0
466,-30,-4308,-59,-81,14,2024-01-29 16:39:46,0.0
433,-31,-4221,-62,-69,7,2024-01-29 16:39:46,0.0
445,-29,-4230,-62,-95,37,2024-01-29 16:39:46,0.0
397,-13,-4189,-51,-71,25,2024-01-29 16:39:47,0.0
408,-13,-4223,-38,-50,11,2024-01-29 16:39:47,0.0
423,-36,-4234,-39,-45,10,2024-01-29 16:39:47,0.0
426,-1,-4191,-16,-83,17,2024-01-29 16:39:47,0.0
390,-10,-4164,-45,-41,14,2024-01-29 16:39:47,0.0
389,-14,-4228,-12,-64,7,2024-01-29 16:39:47,0.0
365,-1,-4229,-14,-61,3,2024-01-29 16:39:47,0.0
362,-4,-4216,-55,-47,13,2024-01-29 16:39:47,0.0
339,-19,-4221,-46,-54,15,2024-01-29 16:39:47,0.0
339,-38,-4202,-35,-27,9,2024-01-29 16:39:47,0.0
358,-37,-4151,-27,-44,6,2024-01-29 16:39:47,0.0
351,-11,-4267,29,-66,-1,2024-01-29 16:39:47,0.0
367,-55,-4065,49,-94,-6,2024-01-29 16:39:47,0.0
321,-90,-4239,-17,-96,-2,2024-01-29 16:39:47,0.0
287,-88,-4239,-4,-89,3,2024-01-29 16:39:47,0.0
301,-83,-4246,-20,-95,6,2024-01-29 16:39:47,0.0
251,-95,-4153,-21,-105,0,2024-01-29 16:39:47,0.0
263,-94,-4202,-16,-62,4,2024-01-29 16:39:48,
248,-114,-4168,-36,-82,7,2024-01-29 16:39:48,0.0
250,-120,-4212,-36,-62,6,2024-01-29 16:39:48,0.0
235,-59,-4212,-33,-27,5,2024-01-29 16:39:48,0.0
233,-131,-4259,-43,2,8,2024-01-29 16:39:48,0.0
230,-77,-4177,-24,-38,9,2024-01-29 16:39:48,0.0
232,-124,-4218,-38,-36,5,2024-01-29 16:39:48,0.0
240,-102,-4248,-82,7,12,2024-01-29 16:39:48,0.0
199,-111,-4186,-69,5,11,2024-01-29 16:39:48,0.0
252,-106,-4163,-64,3,9,2024-01-29 16:39:48,0.0
239,-68,-4157,-32,-43,10,2024-01-29 16:39:48,0.0
231,-84,-4199,-26,-51,11,2024-01-29 16:39:48,0.0
202,-109,-4206,-24,-51,10,2024-01-29 16:39:48,0.0
233,-86,-4224,-37,-17,10,2024-01-29 16:39:48,0.0
230,-93,-4200,-43,-12,11,2024-01-29 16:39:48,0.0
246,-72,-4260,-28,-6,10,2024-01-29 16:39:48,0.0
254,-92,-4188,-49,-12,8,2024-01-29 16:39:48,0.0
235,-99,-4175,-40,-15,9,2024-01-29 16:39:49,0.0
243,-104,-4213,-47,-15,13,2024-01-29 16:39:49,0.0
269,-87,-4168,-49,-16,8,2024-01-29 16:39:49,0.0
256,-89,-4203,-48,-32,9,2024-01-29 16:39:49,0.0
260,-98,-4241,-52,2,10,2024-01-29 16:39:49,0.0
259,-68,-4208,-74,-5,15,2024-01-29 16:39:49,0.0
272,-73,-4304,-99,80,21,2024-01-29 16:39:49,0.0
341,-91,-4146,-64,59,5,2024-01-29 16:39:49,0.0
341,6,-4146,-44,-19,6,2024-01-29 16:39:49,0.0
297,-60,-4151,-31,-53,4,2024-01-29 16:39:49,0.0
318,-37,-4215,-43,-76,11,2024-01-29 16:39:49,0.0
275,-41,-4220,-39,-57,7,2024-01-29 16:39:49,0.0
278,-27,-4152,-42,-62,9,2024-01-29 16:39:49,0.0
263,-33,-4205,-39,-35,12,2024-01-29 16:39:49,0.0
272,-47,-4209,-40,-15,8,2024-01-29 16:39:49,0.0
272,-53,-4158,-24,-6,10,2024-01-29 16:39:49,0.0
301,-38,-4248,-52,1,11,2024-01-29 16:39:49,0.0
319,-42,-4218,-40,-10,12,2024-01-29 16:39:49,0.0
276,-59,-4158,-27,-54,8,2024-01-29 16:39:50,0.0
276,-85,-4233,16,-110,1,2024-01-29 16:39:50,0.0
272,-74,-4182,-14,-87,5,2024-01-29 16:39:50,0.0
280,-67,-4210,-28,-82,9,2024-01-29 16:39:50,0.0
220,-52,-4208,-37,-74,11,2024-01-29 16:39:50,0.0
229,-76,-4245,-37,-44,11,2024-01-29 16:39:50,0.0
222,-70,-4145,-65,-38,14,2024-01-29 16:39:50,0.0
208,-72,-4216,-37,-60,10,2024-01-29 16:39:50,0.0
209,-76,-4183,-33,-48,7,2024-01-29 16:39:50,0.0
200,-71,-4136,-33,-46,6,2024-01-29 16:39:50,0.0
198,-81,-4180,-32,-57,10,2024-01-29 16:39:50,0.0
195,-61,-4157,-27,-70,11,2024-01-29 16:39:50,0.0
191,-74,-4140,-15,-55,6,2024-01-29 16:39:50,0.0
169,-78,-4235,-48,-61,11,2024-01-29 16:39:50,0.0
155,-68,-4172,-33,-35,8,2024-01-29 16:39:50,0.0
178,-96,-4199,-37,-20,8,2024-01-29 16:39:50,0.0
225,-98,-4132,-3,-35,3,2024-01-29 16:39:50,0.0
211,-71,-4252,-37,-48,11,2024-01-29 16:39:51,0.0
181,-89,-4199,-28,-17,7,2024-01-29 16:39:51,0.0
146,-73,-4208,-42,-24,7,2024-01-29 16:39:51,0.0
169,-88,-4180,-39,-26,7,2024-01-29 16:39:51,0.0
191,-105,-4220,-35,-53,1,2024-01-29 16:39:51,0.0
155,-113,-4267,-30,-48,-1,2024-01-29 16:39:51,0.0
188,-99,-4156,-24,-13,10,2024-01-29 16:39:51,0.0
138,-74,-4213,-44,-23,10,2024-01-29 16:39:51,0.0
188,-93,-4159,-35,-34,12,2024-01-29 16:39:51,0.0
156,-89,-4208,-35,-30,4,2024-01-29 16:39:51,0.0
159,-93,-4208,-37,-11,10,2024-01-29 16:39:51,0.0
185,-103,-4163,-33,-31,6,2024-01-29 16:39:51,0.0
191,-113,-4157,-15,-68,-3,2024-01-29 16:39:51,0.0
155,-95,-4223,-16,-82,-6,2024-01-29 16:39:51,0.0
135,-112,-4258,-39,-44,4,2024-01-29 16:39:51,0.0
145,-106,-4195,-30,-24,10,2024-01-29 16:39:51,0.0
160,-120,-4160,-50,-35,11,2024-01-29 16:39:51,0.0
156,-109,-4205,-37,-51,6,2024-01-29 16:39:51,0.0
135,-116,-4231,-38,-27,8,2024-01-29 16:39:52,0.0
141,-106,-4180,-43,-33,10,2024-01-29 16:39:52,0.0
117,-112,-4149,-25,-49,2,2024-01-29 16:39:52,0.0
131,-122,-4183,-47,-58,6,2024-01-29 16:39:52,0.0
136,-120,-4254,-36,-30,9,2024-01-29 16:39:52,0.0
154,-130,-4175,-34,-24,7,2024-01-29 16:39:52,0.0
122,-118,-4185,-15,-18,5,2024-01-29 16:39:52,0.0
97,-140,-4198,-37,-59,4,2024-01-29 16:39:52,0.0
112,-99,-4239,-35,-30,6,2024-01-29 16:39:52,0.0
121,-133,-4187,-44,-9,2,2024-01-29 16:39:52,0.0
134,-111,-4197,-30,-49,10,2024-01-29 16:39:52,0.0
132,-149,-4189,-30,-35,9,2024-01-29 16:39:52,0.0
106,-134,-4207,-41,-25,9,2024-01-29 16:39:52,0.0
133,-132,-4198,-42,-4,6,2024-01-29 16:39:52,0.0
156,-129,-4166,-38,-25,11,2024-01-29 16:39:52,0.0
123,-140,-4201,-37,-40,8,2024-01-29 16:39:52,0.0
105,-140,-4221,-39,-47,7,2024-01-29 16:39:52,0.0
132,-119,-4212,-43,-24,5,2024-01-29 16:39:53,0.0
105,-138,-4183,-40,-25,8,2024-01-29 16:39:53,0.0
122,-107,-4198,-38,-22,10,2024-01-29 16:39:53,0.0
136,-139,-4165,-42,-29,9,2024-01-29 16:39:53,0.0
118,-106,-4229,-38,-3,8,2024-01-29 16:39:53,0.0
127,-138,-4193,-42,-9,8,2024-01-29 16:39:53,0.0
141,-146,-4155,-48,-18,11,2024-01-29 16:39:53,0.0
139,-146,-4181,-38,-21,11,2024-01-29 16:39:53,0.0
132,-116,-4215,-38,-17,8,2024-01-29 16:39:53,0.0
153,-104,-4224,-44,-28,10,2024-01-29 16:39:53,0.0
144,-120,-4217,-42,-39,8,2024-01-29 16:39:53,0.0
156,-117,-4171,-39,-57,8,2024-01-29 16:39:53,0.0
100,-136,-4268,-30,-41,5,2024-01-29 16:39:53,0.0
112,-130,-4194,-33,-30,12,2024-01-29 16:39:53,
106,-123,-4164,-34,-50,8,2024-01-29 16:39:53,0.0
161,-130,-4204,-36,-25,7,2024-01-29 16:39:53,0.0
115,-131,-4138,-43,-33,9,2024-01-29 16:39:53,0.0
126,-136,-4203,-36,-32,5,2024-01-29 16:39:53,0.0
111,-155,-4208,-31,-33,9,2024-01-29 16:39:54,0.0
136,-117,-4173,-27,-36,3,2024-01-29 16:39:54,0.0
101,-144,-4212,-39,-7,6,2024-01-29 16:39:54,0.0
104,-139,-4194,-42,-13,8,2024-01-29 16:39:54,0.0
118,-135,-4195,-38,-30,3,2024-01-29 16:39:54,0.0
144,-128,-4192,-47,-54,9,2024-01-29 16:39:54,0.0
121,-121,-4184,-34,-89,10,2024-01-29 16:39:54,0.0
102,-141,-4179,-22,-62,-1,2024-01-29 16:39:54,0.0
80,-125,-4235,-35,-24,5,2024-01-29 16:39:54,0.0
76,-146,-4225,-39,-20,5,2024-01-29 16:39:54,0.0
120,-130,-4157,-35,-18,5,2024-01-29 16:39:54,0.0
117,-144,-4193,-31,-36,5,2024-01-29 16:39:54,0.0
113,-139,-4155,-34,-17,3,2024-01-29 16:39:54,0.0
90,-156,-4203,-25,-27,5,2024-01-29 16:39:54,0.0
100,-155,-4188,-22,-10,2,2024-01-29 16:39:54,0.0
123,-171,-4204,-10,-28,1,2024-01-29 16:39:54,0.0
108,-162,-4232,-21,-36,1,2024-01-29 16:39:54,0.0
95,-178,-4232,-22,-21,2,2024-01-29 16:39:55,0.0
113,-194,-4205,-28,-8,5,2024-01-29 16:39:55,0.0
98,-172,-4199,-28,-20,7,2024-01-29 16:39:55,0.0
138,-162,-4168,-31,-28,8,2024-01-29 16:39:55,0.0
122,-181,-4184,-30,-50,10,2024-01-29 16:39:55,0.0
119,-187,-4146,-48,-37,11,2024-01-29 16:39:55,0.0
118,-169,-4200,-40,-60,8,2024-01-29 16:39:55,0.0
75,-169,-4219,-48,-16,6,2024-01-29 16:39:55,0.0
101,-182,-4166,-44,-15,8,2024-01-29 16:39:55,0.0
109,-163,-4197,-49,14,11,2024-01-29 16:39:55,0.0
124,-133,-4195,-52,-6,12,2024-01-29 16:39:55,0.0
138,-146,-4167,-40,-32,11,2024-01-29 16:39:55,0.0
129,-179,-4186,-40,-32,6,2024-01-29 16:39:55,0.0
126,-195,-4294,-28,49,3,2024-01-29 16:39:55,0.0
282,194,-4522,104,781,137,2024-01-29 16:39:55,0.0
-443,590,-5103,-39,615,-4,2024-01-29 16:39:55,0.0
-52,273,-4137,79,-672,-240,2024-01-29 16:39:55,0.0
-156,461,-4149,-24,-746,-247,2024-01-29 16:39:55,0.0
-320,157,-4018,17,-785,-446,2024-01-29 16:39:56,0.0
-746,-889,-4594,36,-321,-548,2024-01-29 16:39:56,0.0
-178,-1760,-4832,498,-23,-568,2024-01-29 16:39:56,0.0
64,-1785,-4732,979,101,-469,2024-01-29 16:39:56,0.0
402,-1180,-4270,863,128,-269,2024-01-29 16:39:56,0.0
-36,-1478,-4038,544,230,-86,2024-01-29 16:39:56,0.0
-355,-1580,-3816,360,-27,244,2024-01-29 16:39:56,0.0
-295,-1858,-3567,185,-197,320,2024-01-29 16:39:56,0.0
-325,-1870,-3647,422,-286,300,2024-01-29 16:39:56,0.0
179,-1264,-3540,510,-109,244,2024-01-29 16:39:56,0.0
293,-951,-3572,316,310,154,2024-01-29 16:39:56,0.0
-124,-1424,-4380,294,419,270,2024-01-29 16:39:56,0.0
119,-565,-4692,-131,667,225,2024-01-29 16:39:56,0.0
1,-1553,-4206,-574,583,152,2024-01-29 16:39:56,0.0
206,-1429,-4332,-446,582,30,2024-01-29 16:39:56,0.0
402,-795,-3735,-436,678,-25,2024-01-29 16:39:56,0.0
563,-1193,-3805,-572,620,264,2024-01-29 16:39:56,0.0
491,-446,-4066,-803,597,227,2024-01-29 16:39:57,0.0
519,-750,-4069,-810,258,96,2024-01-29 16:39:57,0.0
124,285,-3766,-885,-83,18,2024-01-29 16:39:57,0.0
-34,-432,-4298,-837,-6,37,2024-01-29 16:39:57,0.0
37,332,-3941,-904,-299,178,2024-01-29 16:39:57,0.0
317,886,-3723,-1049,-299,261,2024-01-29 16:39:57,0.0
1030,60,-3814,-1063,77,207,2024-01-29 16:39:57,0.0
1254,-288,-4128,-606,217,245,2024-01-29 16:39:57,0.0
1211,380,-4511,-116,92,229,2024-01-29 16:39:57,0.0
1792,-276,-4637,78,939,-100,2024-01-29 16:39:57,0.0
1409,-35,-4636,283,1370,-56,2024-01-29 16:39:57,0.0
1884,28,-3826,341,1343,37,2024-01-29 16:39:57,0.0
1569,-19,-3693,384,1366,123,2024-01-29 16:39:57,0.0
2315,451,-3550,335,1307,63,2024-01-29 16:39:57,0.0
2314,190,-3378,159,1280,36,2024-01-29 16:39:57,0.0
2474,49,-3430,176,1208,-46,2024-01-29 16:39:57,0.0
2988,-310,-3185,229,1144,-128,2024-01-29 16:39:57,0.0
3135,-18,-3253,302,1219,-208,2024-01-29 16:39:57,0.0
3322,-35,-3085,284,1450,-340,2024-01-29 16:39:58,0.0
3826,-311,-2514,296,1779,-291,2024-01-29 16:39:58,0.0
3682,113,-2162,273,2165,-382,2024-01-29 16:39:58,0.0
2998,583,-737,217,1365,-157,2024-01-29 16:39:58,0.0
3513,250,-1221,-102,-252,-181,2024-01-29 16:39:58,0.0
4226,14,-1373,64,-1837,-135,2024-01-29 16:39:58,0.0
4669,382,-1741,169,-2594,0,2024-01-29 16:39:58,0.0
4356,-53,-3055,-65,-1946,202,2024-01-29 16:39:58,0.0
4855,-175,-3687,12,-1483,342,2024-01-29 16:39:58,0.0
3665,-321,-3239,-3,-1223,361,2024-01-29 16:39:58,0.0
3913,512,-3162,-29,-700,247,2024-01-29 16:39:58,0.0
2868,-259,-3053,62,-462,171,2024-01-29 16:39:58,0.0
2704,-313,-3181,84,-468,104,2024-01-29 16:39:58,0.0
2810,-53,-3287,164,-400,42,2024-01-29 16:39:58,0.0
3379,372,-3779,-148,-187,126,2024-01-29 16:39:58,0.0
3282,-98,-4172,-332,548,142,2024-01-29 16:39:58,0.0
3460,-635,-3821,-207,800,-15,2024-01-29 16:39:58,0.0
3637,-330,-3453,-136,1054,-154,2024-01-29 16:39:59,0.0
3120,-424,-3129,166,974,-180,2024-01-29 16:39:59,0.0
3056,-578,-2925,383,1102,-91,2024-01-29 16:39:59,0.0
2869,173,-2373,256,1345,-81,2024-01-29 16:39:59,0.0
2535,235,-2319,-131,1154,-223,2024-01-29 16:39:59,0.0
3222,-444,-2132,-411,800,-8,2024-01-29 16:39:59,0.0
3156,-680,-1567,83,967,54,2024-01-29 16:39:59,0.0
2980,166,-1246,192,845,-7,2024-01-29 16:39:59,0.0
2924,461,-1346,-207,612,5,2024-01-29 16:39:59,
