acceleration_x,acceleration_y,acceleration_z,gyroscope_x,gyroscope_y,gyroscope_z,timestamp,label
4331,-36,-330,3,-18,-12,2024-01-29 16:54:27,0.0
4338,11,-302,-28,-22,-6,2024-01-29 16:54:27,0.0
4359,5,-294,-43,6,-2,2024-01-29 16:54:27,0.0
4304,-25,-233,-56,1,8,2024-01-29 16:54:27,0.0
4362,-10,-268,-34,-20,12,2024-01-29 16:54:27,0.0
4334,3,-285,-39,-16,7,2024-01-29 16:54:27,0.0
4364,-13,-317,-42,-15,16,2024-01-29 16:54:27,0.0
4351,-18,-283,-39,9,13,2024-01-29 16:54:27,0.0
4316,-11,-282,-53,-4,17,2024-01-29 16:54:27,0.0
4345,-44,-261,-38,0,18,2024-01-29 16:54:27,0.0
4360,-10,-250,-36,-5,4,2024-01-29 16:54:27,0.0
4328,-16,-239,-34,1,3,2024-01-29 16:54:27,0.0
4350,-26,-185,-20,-10,1,2024-01-29 16:54:28,0.0
4342,1,-237,-19,0,4,2024-01-29 16:54:28,0.0
4350,-20,-137,-11,-13,4,2024-01-29 16:54:28,0.0
4369,16,-227,-32,-26,-3,2024-01-29 16:54:28,0.0
4324,-31,-204,-33,-4,12,2024-01-29 16:54:28,0.0
4316,21,-227,-49,-8,9,2024-01-29 16:54:28,0.0
4398,-12,-211,-57,-28,19,2024-01-29 16:54:28,0.0
4358,-14,-168,-54,-29,23,2024-01-29 16:54:28,0.0
4323,-4,-213,-57,-52,16,2024-01-29 16:54:28,0.0
4342,-44,-194,-39,-63,26,2024-01-29 16:54:28,0.0
4339,-30,-227,-31,-64,17,2024-01-29 16:54:28,0.0
4339,5,-215,-31,-56,30,2024-01-29 16:54:28,0.0
4315,-51,-222,-30,-81,26,2024-01-29 16:54:28,0.0
4360,-47,-266,-34,-39,4,2024-01-29 16:54:28,0.0
4334,-17,-244,-6,-58,9,2024-01-29 16:54:28,0.0
4346,-11,-260,-22,-32,-3,2024-01-29 16:54:28,0.0
4324,-21,-245,-42,-38,12,2024-01-29 16:54:28,0.0
4328,-42,-274,-49,-34,13,2024-01-29 16:54:29,0.0
4333,-43,-266,-53,-44,10,2024-01-29 16:54:29,0.0
4324,-64,-254,-42,-44,2,2024-01-29 16:54:29,0.0
4365,-18,-268,-39,-52,3,2024-01-29 16:54:29,0.0
4311,-3,-288,-42,-38,4,2024-01-29 16:54:29,0.0
4331,-61,-324,-42,-56,9,2024-01-29 16:54:29,0.0
4319,-29,-319,-48,-46,16,2024-01-29 16:54:29,0.0
4350,-46,-287,-32,-37,8,2024-01-29 16:54:29,0.0
4310,-11,-288,-34,-37,3,2024-01-29 16:54:29,0.0
4332,-23,-294,-29,-24,3,2024-01-29 16:54:29,0.0
4339,17,-291,-43,-16,-2,2024-01-29 16:54:29,0.0
4295,-22,-307,-52,-42,3,2024-01-29 16:54:29,0.0
4364,-36,-262,-53,-20,4,2024-01-29 16:54:29,0.0
4320,-42,-272,-44,-11,9,2024-01-29 16:54:29,0.0
4369,-19,-286,-41,-3,11,2024-01-29 16:54:29,0.0
4282,18,-264,-44,1,15,2024-01-29 16:54:29,0.0
4307,-7,-265,-49,-8,10,2024-01-29 16:54:29,0.0
4346,-33,-312,-62,50,0,2024-01-29 16:54:30,0.0
4277,7,-242,-67,22,7,2024-01-29 16:54:30,0.0
4359,19,-185,-85,18,2,2024-01-29 16:54:30,0.0
4317,-66,-194,-59,-23,4,2024-01-29 16:54:30,0.0
4370,-39,-249,-32,-51,6,2024-01-29 16:54:30,0.0
4338,-3,-259,-35,-49,2,2024-01-29 16:54:30,0.0
4346,-21,-245,-38,-47,10,2024-01-29 16:54:30,0.0
4346,-35,-238,-35,-41,13,2024-01-29 16:54:30,0.0
4374,-3,-225,-33,-40,9,2024-01-29 16:54:30,0.0
4338,22,-188,-39,-38,5,2024-01-29 16:54:30,0.0
4354,35,-234,-33,-69,7,2024-01-29 16:54:30,0.0
4342,-8,-280,-27,-24,2,2024-01-29 16:54:30,0.0
4313,-44,-281,-34,-43,14,2024-01-29 16:54:30,0.0
4327,-11,-276,-36,-35,12,2024-01-29 16:54:30,0.0
4328,-9,-318,-38,-38,14,2024-01-29 16:54:30,0.0
4337,-19,-271,-36,-29,12,2024-01-29 16:54:30,0.0
4331,-7,-309,-45,-27,15,2024-01-29 16:54:30,0.0
4332,-12,-277,-41,-21,21,2024-01-29 16:54:30,0.0
4333,-25,-245,-52,-21,14,2024-01-29 16:54:31,0.0
4317,-49,-306,-45,-22,14,2024-01-29 16:54:31,0.0
4336,-39,-261,-37,-18,8,2024-01-29 16:54:31,0.0
4341,-37,-306,-33,-27,14,2024-01-29 16:54:31,0.0
4321,-30,-242,-34,-29,12,2024-01-29 16:54:33,0.0
4334,29,-269,-38,-27,10,2024-01-29 16:54:33,0.0
4337,-27,-243,-43,-30,9,2024-01-29 16:54:33,0.0
4339,-17,-216,-29,-45,5,2024-01-29 16:54:33,0.0
4309,-20,-249,-32,-45,9,2024-01-29 16:54:33,0.0
4366,-28,-309,-38,-49,8,2024-01-29 16:54:33,0.0
4374,4,-291,-54,-34,7,2024-01-29 16:54:33,0.0
4311,1,-276,-58,-39,7,2024-01-29 16:54:33,0.0
4332,-29,-249,-49,-30,11,2024-01-29 16:54:33,0.0
4342,-11,-260,-33,-24,-3,2024-01-29 16:54:33,0.0
4307,-37,-252,-37,-27,3,2024-01-29 16:54:33,0.0
4336,-53,-258,-33,-8,9,2024-01-29 16:54:33,0.0
4382,-39,-273,-29,-18,16,2024-01-29 16:54:33,0.0
4318,-61,-260,-31,-16,14,2024-01-29 16:54:33,0.0
4331,-26,-253,-38,-20,16,2024-01-29 16:54:33,0.0
4317,-52,-266,-42,-27,6,2024-01-29 16:54:33,0.0
4364,-36,-246,-40,-15,4,2024-01-29 16:54:33,0.0
4339,-27,-278,-36,-16,4,2024-01-29 16:54:33,0.0
4328,-6,-253,-57,-16,7,2024-01-29 16:54:33,0.0
4355,-63,-239,-45,-27,6,2024-01-29 16:54:34,0.0
4349,-37,-280,-36,-9,1,2024-01-29 16:54:34,0.0
4346,-41,-285,-25,2,1,2024-01-29 16:54:34,0.0
4334,-1,-197,-48,-17,7,2024-01-29 16:54:34,0.0
4346,-30,-250,-69,-19,14,2024-01-29 16:54:34,0.0
4371,-75,-275,-37,-16,18,2024-01-29 16:54:34,0.0
4345,-44,-185,-31,-26,2,2024-01-29 16:54:34,0.0
4314,-28,-231,-22,-26,4,2024-01-29 16:54:34,0.0
4307,-30,-213,-36,-36,1,2024-01-29 16:54:34,0.0
4350,-6,-215,-39,-38,6,2024-01-29 16:54:34,0.0
4334,-16,-240,-46,-55,4,2024-01-29 16:54:34,0.0
4365,-45,-193,-48,-50,7,2024-01-29 16:54:34,0.0
4319,-54,-265,-49,-41,13,2024-01-29 16:54:34,
4337,-33,-253,-40,-50,6,2024-01-29 16:54:34,0.0
4367,-23,-246,-42,-48,9,2024-01-29 16:54:34,0.0
4304,-19,-217,-45,-47,4,2024-01-29 16:54:34,0.0
4351,-51,-255,-49,-47,5,2024-01-29 16:54:34,0.0
4331,-28,-295,-42,-62,7,2024-01-29 16:54:34,0.0
4332,-61,-268,-34,-40,10,2024-01-29 16:54:35,0.0
4334,-34,-254,-35,-49,10,2024-01-29 16:54:35,0.0
4357,-51,-295,-33,-50,10,2024-01-29 16:54:35,0.0
4332,-48,-306,-41,-34,10,2024-01-29 16:54:35,0.0
4321,-12,-279,-37,-26,13,2024-01-29 16:54:35,0.0
4340,-28,-237,-43,-46,8,2024-01-29 16:54:35,0.0
4340,-55,-299,-46,-32,12,2024-01-29 16:54:35,0.0
4330,-62,-292,-43,-25,10,2024-01-29 16:54:35,0.0
4343,-41,-280,-35,-28,14,2024-01-29 16:54:35,0.0
4352,-26,-320,-43,-23,11,2024-01-29 16:54:35,0.0
4340,-32,-237,-46,-19,10,2024-01-29 16:54:35,0.0
4347,-48,-285,-43,-20,10,2024-01-29 16:54:35,0.0
4319,-38,-261,-41,-22,11,2024-01-29 16:54:35,0.0
4339,-58,-245,-37,-28,12,2024-01-29 16:54:35,0.0
4339,-39,-312,-37,-27,6,2024-01-29 16:54:35,0.0
4330,-42,-293,-38,-21,10,2024-01-29 16:54:35,0.0
4333,-69,-254,-37,-25,11,2024-01-29 16:54:35,0.0
4335,-2,-269,-40,-17,10,2024-01-29 16:54:36,0.0
4340,-38,-260,-41,-24,10,2024-01-29 16:54:36,0.0
4324,-74,-323,-45,-21,11,2024-01-29 16:54:36,0.0
4339,-38,-277,-46,-22,9,2024-01-29 16:54:36,0.0
4353,-5,-266,-39,-33,6,2024-01-29 16:54:36,0.0
4326,-64,-284,-45,-9,7,2024-01-29 16:54:36,0.0
4344,-49,-256,-41,-28,9,2024-01-29 16:54:36,0.0
4342,-53,-296,-35,-17,9,2024-01-29 16:54:36,0.0
4353,-9,-243,-41,-23,10,2024-01-29 16:54:36,0.0
4328,-16,-286,-37,-29,11,2024-01-29 16:54:36,0.0
4337,-33,-264,-37,-32,7,2024-01-29 16:54:36,0.0
4331,-36,-247,-39,-27,9,2024-01-29 16:54:36,0.0
4352,-21,-269,-37,-37,8,2024-01-29 16:54:36,0.0
4328,-21,-233,-40,-20,13,2024-01-29 16:54:36,0.0
4328,-32,-282,-41,-14,10,2024-01-29 16:54:36,0.0
4330,-46,-242,-37,-18,10,2024-01-29 16:54:36,0.0
4331,-22,-235,-37,-24,3,2024-01-29 16:54:36,0.0
4359,-12,-239,-41,-17,8,2024-01-29 16:54:36,0.0
4305,-31,-232,-41,-19,9,2024-01-29 16:54:37,0.0
4357,-47,-250,-38,-24,11,2024-01-29 16:54:37,0.0
4351,-31,-238,-33,0,6,2024-01-29 16:54:37,0.0
4336,-24,-240,-40,-13,8,2024-01-29 16:54:37,0.0
4332,-56,-245,-42,-15,8,2024-01-29 16:54:37,0.0
4307,-59,-256,-45,-31,13,2024-01-29 16:54:37,0.0
4332,-13,-205,-46,-25,11,2024-01-29 16:54:37,0.0
4342,-50,-275,-37,-36,12,2024-01-29 16:54:37,0.0
4320,-19,-232,-37,-38,9,2024-01-29 16:54:37,0.0
4333,-77,-289,-32,-42,7,2024-01-29 16:54:37,0.0
4333,-42,-205,-29,-67,6,2024-01-29 16:54:37,0.0
4357,-29,-232,-32,-56,2,2024-01-29 16:54:37,0.0
4328,-49,-251,-43,-56,8,2024-01-29 16:54:37,0.0
4343,-45,-242,-37,-29,1,2024-01-29 16:54:37,0.0
4344,-22,-236,-38,-51,3,2024-01-29 16:54:37,0.0
4324,-29,-264,-37,-53,4,2024-01-29 16:54:37,0.0
4330,-6,-295,-39,-48,3,2024-01-29 16:54:37,0.0
4346,-36,-286,-45,-43,5,2024-01-29 16:54:38,0.0
4309,-23,-291,-45,-40,6,2024-01-29 16:54:38,0.0
4313,3,-278,-49,-38,4,2024-01-29 16:54:38,0.0
4370,-5,-295,-47,-51,9,2024-01-29 16:54:38,0.0
4436,27,-517,-60,-67,29,2024-01-29 16:54:38,0.0
4541,-18,-725,-99,-117,48,2024-01-29 16:54:38,0.0
4648,-37,-869,-160,-22,-27,2024-01-29 16:54:38,0.0
4217,-82,-845,-88,-95,30,2024-01-29 16:54:38,0.0
4355,-45,-772,19,64,102,2024-01-29 16:54:38,0.0
3947,280,-538,-212,192,48,2024-01-29 16:54:38,0.0
3880,-245,-679,-90,218,202,2024-01-29 16:54:38,0.0
3856,0,-611,-80,303,36,2024-01-29 16:54:38,0.0
4319,44,-731,4,250,174,2024-01-29 16:54:38,0.0
4087,-199,-500,10,492,187,2024-01-29 16:54:38,0.0
4797,-61,-421,-111,582,107,2024-01-29 16:54:38,0.0
4487,-139,-296,-265,1071,40,2024-01-29 16:54:38,0.0
3696,-128,-285,-412,1045,61,2024-01-29 16:54:38,0.0
2297,-543,-1189,-345,207,179,2024-01-29 16:54:39,0.0
2367,-984,119,409,1022,251,2024-01-29 16:54:39,0.0
1397,-608,72,631,738,-43,2024-01-29 16:54:39,0.0
3984,23,978,780,1581,7,2024-01-29 16:54:39,0.0
2144,-402,200,156,919,-42,2024-01-29 16:54:39,0.0
1969,239,373,-22,1391,-129,2024-01-29 16:54:39,0.0
940,-361,-778,-163,1546,-415,2024-01-29 16:54:39,0.0
-2122,366,524,210,528,-192,2024-01-29 16:54:39,0.0
13972,-448,17440,512,3162,-311,2024-01-29 16:54:39,0.0
3646,989,16461,210,5670,-1015,2024-01-29 16:54:39,0.0
-444,1234,3319,135,2826,146,2024-01-29 16:54:39,0.0
-2731,-132,2197,-282,2405,-29,2024-01-29 16:54:39,0.0
-908,157,3152,-218,1479,-86,2024-01-29 16:54:40,0.0
-1236,612,5099,-312,520,-60,2024-01-29 16:54:40,0.0
-91,-876,4702,-261,226,-39,2024-01-29 16:54:40,0.0
1626,-39,3468,-112,714,28,2024-01-29 16:54:40,0.0
717,687,4808,12,-68,-91,2024-01-29 16:54:40,0.0
897,188,4847,-144,869,-59,2024-01-29 16:54:41,0.0
955,-32,2540,-26,89,-37,2024-01-29 16:54:42,0.0
732,199,6734,18,91,-148,2024-01-29 16:54:42,0.0
618,-130,2714,-167,156,92,2024-01-29 16:54:42,0.0
372,80,4028,-66,63,19,2024-01-29 16:54:42,0.0
403,19,4432,-46,1,28,2024-01-29 16:54:42,0.0
429,124,4182,-4,-45,30,2024-01-29 16:54:42,0.0
407,69,4277,-7,-72,16,2024-01-29 16:54:43,0.0
420,100,4145,-29,-85,7,2024-01-29 16:54:43,
481,104,4253,-25,-183,5,2024-01-29 16:54:43,0.0
521,115,4202,-41,-80,8,2024-01-29 16:54:43,0.0
491,91,4204,-42,-79,15,2024-01-29 16:54:43,0.0
501,87,4226,-47,-66,12,2024-01-29 16:54:43,0.0
541,97,4204,-44,-62,2,2024-01-29 16:54:43,0.0
565,108,4302,-48,-121,0,2024-01-29 16:54:43,0.0
559,91,4240,-77,-60,4,2024-01-29 16:54:45,0.0
600,113,4187,-27,-51,7,2024-01-29 16:54:45,0.0
610,94,4245,-30,-63,4,2024-01-29 16:54:45,0.0
625,71,4191,-39,-49,5,2024-01-29 16:54:45,0.0
622,123,4243,-34,-70,5,2024-01-29 16:54:45,0.0
625,113,4214,-23,-38,7,2024-01-29 16:54:45,0.0
624,102,4217,-33,-42,7,2024-01-29 16:54:45,0.0
636,102,4185,-42,-47,8,2024-01-29 16:54:45,0.0
631,78,4253,-27,-39,6,2024-01-29 16:54:45,0.0
650,84,4174,-37,-47,7,2024-01-29 16:54:45,0.0
655,101,4225,-30,-37,6,2024-01-29 16:54:45,0.0
662,106,4195,-35,-42,4,2024-01-29 16:54:45,0.0
663,115,4187,-29,-40,9,2024-01-29 16:54:45,0.0
637,134,4166,-40,-21,11,2024-01-29 16:54:46,0.0
625,138,4175,-46,-25,1,2024-01-29 16:54:46,0.0
646,95,4194,-39,-18,1,2024-01-29 16:54:46,0.0
667,116,4193,-41,-27,9,2024-01-29 16:54:46,0.0
655,105,4192,-36,-8,13,2024-01-29 16:54:46,0.0
685,114,4169,-47,-10,11,2024-01-29 16:54:46,0.0
639,108,4186,-57,12,5,2024-01-29 16:54:46,0.0
614,86,4205,-50,-6,-9,2024-01-29 16:54:46,0.0
614,95,4261,-44,-37,5,2024-01-29 16:54:46,0.0
638,144,4154,-52,-8,20,2024-01-29 16:54:46,0.0
622,97,4175,-45,-18,10,2024-01-29 16:54:46,0.0
630,56,4254,-51,-25,0,2024-01-29 16:54:46,0.0
610,83,4230,-56,-18,6,2024-01-29 16:54:46,0.0
614,99,4268,-46,-24,12,2024-01-29 16:54:46,0.0
628,103,4153,-47,-14,16,2024-01-29 16:54:46,0.0
655,51,4231,-57,-22,6,2024-01-29 16:54:46,0.0
603,64,4177,-53,-34,3,2024-01-29 16:54:46,0.0
603,91,4224,-40,-30,6,2024-01-29 16:54:47,0.0
613,105,4200,-40,-26,13,2024-01-29 16:54:47,0.0
637,96,4210,-41,-23,15,2024-01-29 16:54:47,0.0
619,90,4209,-38,-38,13,2024-01-29 16:54:47,0.0
591,78,4200,-46,-30,2,2024-01-29 16:54:47,0.0
615,97,4234,-39,-48,8,2024-01-29 16:54:47,0.0
617,94,4198,-34,-9,12,2024-01-29 16:54:47,0.0
626,86,4221,-38,-27,11,2024-01-29 16:54:47,0.0
625,62,4227,-39,-22,11,2024-01-29 16:54:47,0.0
604,92,4167,-40,-28,9,2024-01-29 16:54:47,0.0
597,78,4175,-38,-24,13,2024-01-29 16:54:47,0.0
626,84,4196,-34,-33,8,2024-01-29 16:54:47,0.0
616,100,4247,-34,-59,7,2024-01-29 16:54:47,0.0
630,73,4201,-31,-52,4,2024-01-29 16:54:47,0.0
684,95,4240,-43,-35,10,2024-01-29 16:54:47,0.0
656,84,4208,-33,-64,3,2024-01-29 16:54:47,0.0
627,81,4214,-30,-50,6,2024-01-29 16:54:47,0.0
665,77,4199,-28,-51,10,2024-01-29 16:54:47,0.0
628,95,4189,-30,-33,8,2024-01-29 16:54:48,0.0
677,80,4183,-34,-32,8,2024-01-29 16:54:48,0.0
654,80,4223,-40,-52,3,2024-01-29 16:54:48,0.0
657,86,4188,-30,-60,9,2024-01-29 16:54:48,0.0
651,113,4169,-29,-1,12,2024-01-29 16:54:48,0.0
691,105,4254,-28,-32,4,2024-01-29 16:54:48,0.0
670,81,4194,-43,-42,11,2024-01-29 16:54:48,0.0
695,88,4228,-36,-25,11,2024-01-29 16:54:48,0.0
674,85,4214,-35,-32,10,2024-01-29 16:54:48,0.0
655,120,4216,-44,-29,8,2024-01-29 16:54:48,0.0
658,96,4171,-33,-27,12,2024-01-29 16:54:48,0.0
678,101,4219,-52,-10,10,2024-01-29 16:54:48,0.0
622,94,4162,-48,-18,10,2024-01-29 16:54:48,0.0
646,92,4215,-45,4,9,2024-01-29 16:54:48,0.0
660,115,4199,-44,-11,13,2024-01-29 16:54:48,0.0
657,93,4163,-39,2,8,2024-01-29 16:54:48,0.0
642,101,4208,-46,-24,9,2024-01-29 16:54:48,0.0
624,63,4195,-53,-6,7,2024-01-29 16:54:48,0.0
635,86,4194,-45,-26,10,2024-01-29 16:54:49,0.0
672,99,4171,-35,-32,11,2024-01-29 16:54:49,0.0
635,65,4221,-44,-10,13,2024-01-29 16:54:49,0.0
646,107,4175,-39,-24,10,2024-01-29 16:54:49,0.0
633,97,4201,-40,-22,10,2024-01-29 16:54:49,0.0
620,110,4206,-42,-28,10,2024-01-29 16:54:49,0.0
618,100,4210,-38,-27,6,2024-01-29 16:54:49,0.0
650,79,4222,-39,-32,8,2024-01-29 16:54:49,0.0
630,90,4213,-48,-9,5,2024-01-29 16:54:49,0.0
624,107,4154,-48,-11,6,2024-01-29 16:54:49,0.0
611,107,4218,-42,-19,8,2024-01-29 16:54:49,0.0
626,85,4249,-38,-34,5,2024-01-29 16:54:49,0.0
660,100,4231,-18,-37,0,2024-01-29 16:54:49,0.0
675,120,4352,-24,20,2,2024-01-29 16:54:49,0.0
565,152,3773,-77,228,17,2024-01-29 16:54:49,0.0
512,92,4518,-32,183,37,2024-01-29 16:54:49,0.0
417,21,4028,-60,167,28,2024-01-29 16:54:49,0.0
613,52,3946,29,200,81,2024-01-29 16:54:50,0.0
148,238,4605,-30,67,76,2024-01-29 16:54:50,0.0
420,-10,3828,-27,211,87,2024-01-29 16:54:50,0.0
370,114,3474,23,-157,75,2024-01-29 16:54:50,0.0
298,113,4485,35,-348,50,2024-01-29 16:54:50,0.0
287,228,4707,31,-593,72,2024-01-29 16:54:50,0.0
111,206,4441,2,-867,38,2024-01-29 16:54:50,0.0
741,158,4306,2,-836,31,2024-01-29 16:54:50,0.0
704,161,4137,3,-1019,115,2024-01-29 16:54:50,0.0
1018,352,5007,52,-1055,108,2024-01-29 16:54:50,0.0
1423,192,3428,17,-888,-27,2024-01-29 16:54:50,
1757,137,3398,-77,-734,114,2024-01-29 16:54:50,0.0
1643,199,4068,-17,-892,123,2024-01-29 16:54:50,0.0
2265,-25,3748,14,-966,84,2024-01-29 16:54:50,0.0
2819,311,2942,133,-1015,169,2024-01-29 16:54:50,0.0
2627,37,4213,-88,-1124,104,2024-01-29 16:54:50,0.0
3287,16,2486,165,-1011,118,2024-01-29 16:54:50,0.0
3434,128,2609,106,-1610,-86,2024-01-29 16:54:50,0.0
3062,-188,3507,104,-1131,-282,2024-01-29 16:54:52,0.0
3603,358,2624,324,-1018,-321,2024-01-29 16:54:52,0.0
3809,-369,2534,179,-1305,-734,2024-01-29 16:54:52,0.0
4847,298,1368,392,-1412,-592,2024-01-29 16:54:52,0.0
3553,1270,3441,635,-1338,-356,2024-01-29 16:54:52,0.0
4364,1172,1258,691,-976,-209,2024-01-29 16:54:52,0.0
3846,1913,2001,615,-952,-101,2024-01-29 16:54:52,0.0
4072,1638,1022,451,-214,102,2024-01-29 16:54:52,0.0
4036,1647,1389,-94,609,-113,2024-01-29 16:54:52,0.0
5201,1156,-762,-50,-1510,1212,2024-01-29 16:54:52,0.0
5008,662,-1016,-251,-1306,1116,2024-01-29 16:54:52,0.0
4961,363,-1137,-349,-168,233,2024-01-29 16:54:52,0.0
4568,115,-1522,-8,-669,156,2024-01-29 16:54:52,0.0
3077,1237,-1130,-747,-81,-66,2024-01-29 16:54:52,0.0
2516,882,-1417,-811,-472,506,2024-01-29 16:54:52,0.0
1958,524,-889,-896,-1029,1032,2024-01-29 16:54:52,0.0
3344,214,-752,-1020,35,689,2024-01-29 16:54:52,0.0
1099,-501,-1184,10,578,542,2024-01-29 16:54:52,0.0
4681,-594,-2182,-529,20,705,2024-01-29 16:54:52,0.0
3949,-1597,-1666,-521,880,317,2024-01-29 16:54:52,0.0
3809,-1001,-1691,-361,427,246,2024-01-29 16:54:52,0.0
4685,-1328,-1495,-348,38,-2,2024-01-29 16:54:53,0.0
4600,-201,-1285,-617,612,-218,2024-01-29 16:54:53,0.0
3390,-699,-1279,-765,756,-192,2024-01-29 16:54:53,0.0
4396,-261,-1176,-547,826,74,2024-01-29 16:54:53,0.0
4123,-985,-838,-590,1060,-194,2024-01-29 16:54:53,0.0
2970,6,-471,-166,509,-216,2024-01-29 16:54:53,0.0
3939,514,-949,-450,-138,-342,2024-01-29 16:54:53,0.0
4663,-217,-671,-161,328,-21,2024-01-29 16:54:53,0.0
4261,41,-375,-47,136,-102,2024-01-29 16:54:53,0.0
4699,246,-492,34,98,-100,2024-01-29 16:54:53,0.0
3997,285,-167,45,-100,-80,2024-01-29 16:54:53,0.0
4303,243,-412,34,-120,40,2024-01-29 16:54:53,0.0
4186,231,-284,25,-95,46,2024-01-29 16:54:53,0.0
4543,223,-521,38,-154,65,2024-01-29 16:54:53,0.0
4466,-31,-466,61,124,61,2024-01-29 16:54:53,0.0
4283,85,-406,111,-91,-35,2024-01-29 16:54:53,0.0
4302,-117,-651,213,-211,5,2024-01-29 16:54:53,0.0
4224,207,-626,35,47,-33,2024-01-29 16:54:53,0.0
4027,82,-397,-11,46,41,2024-01-29 16:54:54,0.0
4302,84,-487,-61,77,91,2024-01-29 16:54:54,0.0
4423,-50,-513,-77,-1,64,2024-01-29 16:54:54,0.0
4361,-13,-343,-35,22,71,2024-01-29 16:54:54,0.0
4217,-15,-447,-37,-78,56,2024-01-29 16:54:54,0.0
4311,-71,-602,-115,150,17,2024-01-29 16:54:54,0.0
4391,-55,-372,-109,60,18,2024-01-29 16:54:54,0.0
4351,-18,-386,-111,80,8,2024-01-29 16:54:54,0.0
4252,-178,-304,-29,-19,13,2024-01-29 16:54:54,0.0
4174,-53,-282,46,-41,34,2024-01-29 16:54:54,0.0
4422,-142,-230,79,89,30,2024-01-29 16:54:54,0.0
4465,57,-190,17,3,-14,2024-01-29 16:54:54,0.0
4421,-24,-211,-40,95,10,2024-01-29 16:54:54,0.0
4378,-211,-236,61,69,10,2024-01-29 16:54:54,0.0
4318,154,-204,12,-16,8,2024-01-29 16:54:54,0.0
4188,-105,-280,-2,-72,-13,2024-01-29 16:54:54,0.0
4404,5,-362,3,-50,8,2024-01-29 16:54:54,0.0
4376,-5,-242,-47,-8,-38,2024-01-29 16:54:55,0.0
4377,-35,-290,-19,-16,-9,2024-01-29 16:54:55,0.0
4281,-82,-242,13,10,-17,2024-01-29 16:54:55,0.0
4331,34,-269,12,17,-18,2024-01-29 16:54:55,0.0
4366,24,-216,-26,52,10,2024-01-29 16:54:55,0.0
4418,-14,-176,-63,49,12,2024-01-29 16:54:55,0.0
4281,1,-168,-106,65,-8,2024-01-29 16:54:55,0.0
4235,-90,-188,-65,-13,-1,2024-01-29 16:54:55,0.0
4366,64,-98,-49,28,-12,2024-01-29 16:54:55,0.0
4351,-7,-218,-64,-40,18,2024-01-29 16:54:55,0.0
4374,-32,-179,-27,26,9,2024-01-29 16:54:55,0.0
4342,108,-86,-42,-30,-4,2024-01-29 16:54:55,0.0
4321,66,-113,-76,-44,-7,2024-01-29 16:54:55,0.0
4343,-49,-155,21,-78,-2,2024-01-29 16:54:55,0.0
4343,75,-166,27,-60,-5,2024-01-29 16:54:55,0.0
4304,71,-165,8,-83,16,2024-01-29 16:54:55,0.0
4400,43,-153,-14,-64,22,2024-01-29 16:54:55,0.0
4366,41,-186,8,-63,36,2024-01-29 16:54:55,0.0
4379,41,-227,16,-12,30,2024-01-29 16:54:56,0.0
4297,32,-138,4,-21,23,2024-01-29 16:54:56,0.0
4360,24,-226,-11,-2,25,2024-01-29 16:54:56,0.0
4379,83,-208,-78,1,26,2024-01-29 16:54:56,0.0
4359,-11,-175,-110,8,21,2024-01-29 16:54:56,0.0
4276,19,-174,-125,-56,13,2024-01-29 16:54:56,0.0
4355,-74,-269,-99,-102,20,2024-01-29 16:54:56,0.0
4245,-16,-271,-104,-113,27,2024-01-29 16:54:56,0.0
4372,-1,-265,-118,-139,29,2024-01-29 16:54:56,0.0
4350,-33,-327,-139,-68,32,2024-01-29 16:54:56,0.0
4418,-3,-294,-131,-20,19,2024-01-29 16:54:56,0.0
4300,-15,-303,-121,-13,14,2024-01-29 16:54:56,0.0
4362,-16,-239,-112,-11,-3,2024-01-29 16:54:56,0.0
4315,2,-256,-119,-35,-5,2024-01-29 16:54:56,0.0
4368,-61,-266,-93,-30,-3,2024-01-29 16:54:56,0.0
4338,-49,-210,-52,-19,-5,2024-01-29 16:54:56,0.0
4339,-38,-277,-14,-29,-3,2024-01-29 16:54:56,0.0
4304,-13,-201,28,3,-9,2024-01-29 16:54:57,0.0
4329,-5,-178,35,-65,-1,2024-01-29 16:54:57,
4337,31,-254,21,-18,0,2024-01-29 16:54:57,0.0
4329,-21,-209,3,-46,7,2024-01-29 16:54:57,0.0
4308,-1,-261,-10,-5,7,2024-01-29 16:54:57,0.0
4373,-42,-252,11,-42,7,2024-01-29 16:54:57,0.0
4315,17,-195,-5,-6,3,2024-01-29 16:54:57,0.0
4387,-11,-257,-20,-31,14,2024-01-29 16:54:57,0.0
4347,-4,-212,-41,-12,16,2024-01-29 16:54:57,0.0
4334,-5,-235,-55,-43,11,2024-01-29 16:54:57,0.0
4333,-25,-240,-56,-27,8,2024-01-29 16:54:57,0.0
4351,17,-231,-58,-39,7,2024-01-29 16:54:57,0.0
4339,-17,-259,-66,-20,6,2024-01-29 16:54:57,0.0
4326,2,-252,-60,-34,12,2024-01-29 16:54:57,0.0
4364,-2,-315,-54,-26,8,2024-01-29 16:54:57,0.0
4356,25,-259,-52,-44,11,2024-01-29 16:54:57,0.0
4351,20,-313,-61,-35,6,2024-01-29 16:54:57,0.0
4306,23,-291,-50,-39,12,2024-01-29 16:54:57,0.0
4326,32,-329,-48,-1,5,2024-01-29 16:54:58,0.0
4342,-5,-281,-35,-12,7,2024-01-29 16:54:58,0.0
4349,37,-273,-37,-17,8,2024-01-29 16:54:58,0.0
4307,-1,-258,-46,-6,9,2024-01-29 16:54:58,0.0
4335,0,-271,-41,11,11,2024-01-29 16:54:58,0.0
4326,-32,-243,-38,1,13,2024-01-29 16:54:58,0.0
4303,-27,-254,-27,-23,12,2024-01-29 16:54:58,0.0
4287,-33,-261,-15,-11,17,2024-01-29 16:54:58,0.0
4408,-74,-296,-26,42,7,2024-01-29 16:54:58,0.0
4337,41,-130,-73,53,7,2024-01-29 16:54:58,0.0
4335,-118,-164,-44,4,18,2024-01-29 16:54:58,0.0
4264,0,-169,-9,-23,8,2024-01-29 16:54:58,0.0
4333,-18,-163,-19,-3,23,2024-01-29 16:54:58,0.0
4405,-22,-124,-15,7,-11,2024-01-29 16:54:58,0.0
4363,43,-167,-37,-25,7,2024-01-29 16:54:58,0.0
4327,-36,-92,-50,-15,-8,2024-01-29 16:54:58,0.0
4322,14,-129,-28,-40,-7,2024-01-29 16:54:58,0.0
4305,13,-76,-26,-41,-10,2024-01-29 16:54:59,0.0
4367,-36,-158,6,-38,-8,2024-01-29 16:54:59,0.0
4385,6,-146,47,-56,-6,2024-01-29 16:54:59,0.0
4365,62,-161,26,-45,-12,2024-01-29 16:54:59,0.0
4331,81,-244,-29,-40,11,2024-01-29 16:54:59,0.0
4318,35,-202,-47,-39,8,2024-01-29 16:54:59,0.0
4350,46,-204,-42,-59,16,2024-01-29 16:54:59,0.0
4363,67,-215,-56,-71,9,2024-01-29 16:54:59,0.0
4298,22,-252,-57,-52,18,2024-01-29 16:54:59,0.0
4335,19,-213,-55,-53,16,2024-01-29 16:54:59,0.0
4322,14,-220,-60,-71,23,2024-01-29 16:54:59,0.0
4345,-20,-197,-50,-48,29,2024-01-29 16:54:59,0.0
4387,33,-294,-43,-79,22,2024-01-29 16:54:59,0.0
4287,5,-294,-61,-25,26,2024-01-29 16:54:59,0.0
4352,-25,-315,-38,-43,14,2024-01-29 16:54:59,0.0
4340,-1,-226,-41,-74,15,2024-01-29 16:54:59,0.0
4377,-26,-247,-33,-53,21,2024-01-29 16:54:59,0.0
4366,-11,-284,-31,-41,11,2024-01-29 16:54:59,0.0
4327,13,-307,-25,1,18,2024-01-29 16:55:00,0.0
4345,-7,-237,-32,-48,12,2024-01-29 16:55:00,0.0
4328,-21,-287,-32,-36,9,2024-01-29 16:55:00,0.0
4338,-44,-317,-33,-55,12,2024-01-29 16:55:00,0.0
4328,-23,-290,-23,-32,8,2024-01-29 16:55:00,0.0
4332,-44,-267,-30,-24,10,2024-01-29 16:55:00,0.0
4310,-26,-269,-36,-35,15,2024-01-29 16:55:00,0.0
4322,8,-260,-40,-20,14,2024-01-29 16:55:00,0.0
4369,14,-252,-45,-39,11,2024-01-29 16:55:00,0.0
4338,-20,-257,-53,-24,14,2024-01-29 16:55:00,0.0
4376,-19,-270,-58,-26,14,2024-01-29 16:55:00,0.0
4328,-18,-298,-62,-13,11,2024-01-29 16:55:00,0.0
4357,1,-245,-66,-15,11,2024-01-29 16:55:00,0.0
4341,-34,-297,-67,-33,10,2024-01-29 16:55:00,0.0
4329,-32,-292,-61,-15,11,2024-01-29 16:55:00,0.0
4355,-40,-327,-56,-21,7,2024-01-29 16:55:00,0.0
4336,-41,-263,-45,-19,11,2024-01-29 16:55:00,0.0
4341,-42,-285,-43,-22,11,2024-01-29 16:55:01,0.0
4341,-42,-280,-31,0,13,2024-01-29 16:55:01,0.0
4341,-36,-253,-32,-15,1,2024-01-29 16:55:01,0.0
4354,-27,-241,-22,-11,5,2024-01-29 16:55:01,0.0
4331,-40,-202,-19,-8,2,2024-01-29 16:55:01,0.0
4357,-14,-242,-19,-1,7,2024-01-29 16:55:01,0.0
4333,-25,-182,-12,15,12,2024-01-29 16:55:01,0.0
4355,-18,-255,-20,0,11,2024-01-29 16:55:01,0.0
4322,-4,-211,-26,9,9,2024-01-29 16:55:01,0.0
4283,-16,-173,-28,-7,9,2024-01-29 16:55:01,0.0
4343,-19,-228,-37,-12,7,2024-01-29 16:55:01,0.0
4336,-28,-156,-40,-17,10,2024-01-29 16:55:01,0.0
4347,-36,-200,-53,-30,8,2024-01-29 16:55:01,0.0
4324,-14,-200,-60,-38,5,2024-01-29 16:55:01,0.0
4333,1,-152,-66,-33,1,2024-01-29 16:55:01,0.0
4371,-9,-181,-65,-27,0,2024-01-29 16:55:01,0.0
4352,-11,-180,-57,-34,1,2024-01-29 16:55:01,0.0
4372,-30,-199,-54,-27,-6,2024-01-29 16:55:02,0.0
4312,-20,-187,-37,-27,-3,2024-01-29 16:55:02,0.0
4330,24,-184,-29,-15,4,2024-01-29 16:55:02,0.0
4351,15,-214,-38,-19,4,2024-01-29 16:55:02,0.0
4315,-2,-226,-32,-50,1,2024-01-29 16:55:02,0.0
4319,26,-195,-48,-70,-1,2024-01-29 16:55:02,0.0
4342,13,-215,-44,-41,0,2024-01-29 16:55:02,0.0
4349,49,-239,-59,-29,10,2024-01-29 16:55:02,0.0
4357,4,-182,-48,-30,9,2024-01-29 16:55:02,0.0
4320,-5,-249,-46,-62,12,2024-01-29 16:55:02,0.0
4321,32,-199,-38,-50,17,2024-01-29 16:55:02,0.0
4339,-14,-219,-42,-45,13,2024-01-29 16:55:02,0.0
4331,35,-199,-44,-67,19,2024-01-29 16:55:02,0.0
4371,-19,-272,-37,-45,13,2024-01-29 16:55:02,0.0
4331,10,-228,-37,-38,13,2024-01-29 16:55:02,
4359,15,-290,-24,-65,13,2024-01-29 16:55:02,0.0
4342,41,-262,-35,-21,16,2024-01-29 16:55:02,0.0
4463,-36,-304,-29,-49,27,2024-01-29 16:55:02,0.0
4393,29,-533,-55,-43,40,2024-01-29 16:55:03,0.0
4371,36,-513,-99,16,50,2024-01-29 16:55:03,0.0
4188,-53,-331,-96,6,59,2024-01-29 16:55:03,0.0
4348,26,-404,-85,15,38,2024-01-29 16:55:03,0.0
4413,-44,-658,-61,55,49,2024-01-29 16:55:03,0.0
4700,84,-481,-139,141,31,2024-01-29 16:55:03,0.0
4457,-210,-431,-19,180,113,2024-01-29 16:55:03,0.0
4298,-57,-571,-19,172,33,2024-01-29 16:55:03,0.0
3985,57,-689,-57,285,83,2024-01-29 16:55:03,0.0
3614,-128,-1012,-102,163,45,2024-01-29 16:55:03,0.0
3712,96,-1073,-266,206,-29,2024-01-29 16:55:03,0.0
3708,-336,-368,-182,560,223,2024-01-29 16:55:03,0.0
3582,52,235,-371,745,-60,2024-01-29 16:55:03,0.0
4313,-375,-630,178,1351,227,2024-01-29 16:55:03,0.0
2781,-520,-592,185,975,48,2024-01-29 16:55:03,0.0
1645,-69,-20,161,640,92,2024-01-29 16:55:03,0.0
460,284,11,-346,955,64,2024-01-29 16:55:03,0.0
2473,-1044,1218,-280,1593,116,2024-01-29 16:55:03,0.0
4157,-611,358,482,1802,8,2024-01-29 16:55:04,0.0
1259,-285,1076,694,1428,-9,2024-01-29 16:55:04,0.0
-252,851,1099,-17,2020,-375,2024-01-29 16:55:04,0.0
8177,-1837,11042,232,2799,-77,2024-01-29 16:55:04,0.0
8980,-123,17088,575,5745,-864,2024-01-29 16:55:04,0.0
-157,316,4416,341,3362,210,2024-01-29 16:55:04,0.0
-3568,656,3846,-122,2029,-341,2024-01-29 16:55:04,0.0
-1303,-187,2455,78,2414,-68,2024-01-29 16:55:04,0.0
-3683,641,4802,327,1636,-294,2024-01-29 16:55:04,0.0
-170,555,3273,-391,822,-479,2024-01-29 16:55:05,0.0
-2225,483,3292,115,1278,-165,2024-01-29 16:55:05,0.0
-1983,319,2621,-453,-108,-79,2024-01-29 16:55:05,0.0
-2324,-356,2440,-89,-327,170,2024-01-29 16:55:05,0.0
-2019,319,2673,-421,-1448,58,2024-01-29 16:55:05,0.0
-1539,-664,3698,-439,-1656,3,2024-01-29 16:55:05,0.0
-848,247,5701,556,-1411,4,2024-01-29 16:55:05,0.0
5,344,5106,-217,-783,-17,2024-01-29 16:55:05,0.0
-705,-607,3221,75,-747,6,2024-01-29 16:55:06,0.0
579,407,4093,-57,55,1,2024-01-29 16:55:06,0.0
573,395,4147,-29,-55,3,2024-01-29 16:55:06,0.0
602,403,4234,-76,-21,-5,2024-01-29 16:55:06,0.0
536,341,4239,-54,38,1,2024-01-29 16:55:06,0.0
578,337,4160,-100,-26,-5,2024-01-29 16:55:06,0.0
554,352,4186,-82,-10,-6,2024-01-29 16:55:06,0.0
535,317,4267,-53,-52,-1,2024-01-29 16:55:06,0.0
612,332,4083,-34,-8,16,2024-01-29 16:55:06,0.0
561,334,4244,-18,-28,13,2024-01-29 16:55:06,0.0
584,350,4162,-32,-40,13,2024-01-29 16:55:06,0.0
569,338,4176,-43,-51,2,2024-01-29 16:55:06,0.0
562,335,4204,-60,-61,-8,2024-01-29 16:55:06,0.0
662,329,4100,-27,-59,12,2024-01-29 16:55:06,0.0
546,352,4230,-49,-23,3,2024-01-29 16:55:06,0.0
622,376,4165,-37,-62,5,2024-01-29 16:55:07,0.0
605,298,4155,-42,-23,6,2024-01-29 16:55:07,0.0
600,329,4166,-58,-64,5,2024-01-29 16:55:07,0.0
598,330,4140,-34,-42,8,2024-01-29 16:55:07,0.0
651,330,4186,-61,-24,3,2024-01-29 16:55:07,0.0
611,285,4152,-61,-92,-1,2024-01-29 16:55:07,0.0
550,357,4299,-41,-65,-2,2024-01-29 16:55:07,0.0
667,326,4174,-32,-42,12,2024-01-29 16:55:07,0.0
622,315,4205,-45,-44,10,2024-01-29 16:55:07,0.0
635,311,4121,-35,-18,4,2024-01-29 16:55:07,0.0
637,323,4234,-46,-57,-1,2024-01-29 16:55:07,0.0
653,303,4210,-36,-27,7,2024-01-29 16:55:07,0.0
658,328,4177,-35,3,10,2024-01-29 16:55:07,0.0
621,322,4210,-43,-2,11,2024-01-29 16:55:07,0.0
614,285,4142,-39,-3,4,2024-01-29 16:55:07,0.0
568,331,4186,-63,-18,3,2024-01-29 16:55:07,0.0
596,293,4191,-46,-12,10,2024-01-29 16:55:07,0.0
619,323,4163,-59,-11,7,2024-01-29 16:55:07,0.0
608,302,4112,-55,8,3,2024-01-29 16:55:08,0.0
589,311,4186,-54,-1,7,2024-01-29 16:55:08,0.0
604,291,4230,-60,-14,11,2024-01-29 16:55:08,0.0
599,297,4204,-37,5,9,2024-01-29 16:55:08,0.0
578,324,4227,-49,-13,14,2024-01-29 16:55:08,0.0
593,290,4178,-60,8,4,2024-01-29 16:55:08,0.0
540,319,4253,-47,-20,4,2024-01-29 16:55:08,0.0
580,298,4194,-37,-11,7,2024-01-29 16:55:08,0.0
559,290,4171,-42,-7,11,2024-01-29 16:55:08,0.0
562,297,4234,-40,-7,12,2024-01-29 16:55:08,0.0
551,285,4182,-37,-13,11,2024-01-29 16:55:08,0.0
568,293,4199,-44,-16,10,2024-01-29 16:55:08,0.0
546,292,4247,-37,-24,9,2024-01-29 16:55:08,0.0
546,304,4182,-38,-34,9,2024-01-29 16:55:08,0.0
576,293,4200,-46,-43,8,2024-01-29 16:55:08,0.0
523,302,4234,-46,-65,10,2024-01-29 16:55:08,0.0
565,291,4236,-26,-55,13,2024-01-29 16:55:08,0.0
577,313,4200,-33,-57,8,2024-01-29 16:55:09,0.0
576,279,4153,-28,-62,13,2024-01-29 16:55:09,0.0
584,304,4209,-31,-57,9,2024-01-29 16:55:09,0.0
563,289,4239,-45,-67,5,2024-01-29 16:55:09,0.0
586,315,4194,-38,-71,9,2024-01-29 16:55:09,0.0
631,302,4188,-23,-41,9,2024-01-29 16:55:09,0.0
604,313,4186,-41,-38,9,2024-01-29 16:55:09,0.0
573,289,4183,-36,-51,5,2024-01-29 16:55:09,0.0
595,298,4148,-37,-46,7,2024-01-29 16:55:09,0.0
618,318,4223,-37,-41,10,2024-01-29 16:55:09,0.0
611,302,4158,-35,-40,7,2024-01-29 16:55:09,0.0
603,301,4192,-42,-41,5,2024-01-29 16:55:09,
624,296,4155,-33,-48,7,2024-01-29 16:55:09,0.0
638,320,4184,-50,-26,6,2024-01-29 16:55:09,0.0
584,290,4148,-53,-37,3,2024-01-29 16:55:09,0.0
620,311,4167,-43,-27,7,2024-01-29 16:55:09,0.0
629,280,4166,-44,-34,9,2024-01-29 16:55:09,0.0
646,307,4142,-40,-10,10,2024-01-29 16:55:09,0.0
622,276,4206,-42,-18,12,2024-01-29 16:55:10,0.0
594,297,4179,-53,-4,7,2024-01-29 16:55:10,0.0
590,318,4250,-51,-22,10,2024-01-29 16:55:10,0.0
614,317,4127,-36,-4,11,2024-01-29 16:55:10,0.0
599,290,4134,-48,1,12,2024-01-29 16:55:10,0.0
609,271,4234,-44,0,3,2024-01-29 16:55:10,0.0
604,306,4224,-47,-7,9,2024-01-29 16:55:10,0.0
608,313,4199,-45,11,6,2024-01-29 16:55:10,0.0
576,310,4220,-45,-16,1,2024-01-29 16:55:10,0.0
590,299,4208,-43,-15,6,2024-01-29 16:55:10,0.0
593,298,4187,-46,-22,5,2024-01-29 16:55:10,0.0
543,279,4204,-63,-56,-5,2024-01-29 16:55:10,0.0
553,261,4224,-47,-34,3,2024-01-29 16:55:10,0.0
582,272,4199,-45,-37,-2,2024-01-29 16:55:10,0.0
603,278,4186,-44,-45,9,2024-01-29 16:55:10,0.0
587,264,4229,-39,-19,13,2024-01-29 16:55:10,0.0
562,266,4187,-50,-35,8,2024-01-29 16:55:10,0.0
531,267,4226,-41,-28,3,2024-01-29 16:55:11,0.0
589,265,4152,-32,-15,10,2024-01-29 16:55:11,0.0
563,269,4195,-47,-10,9,2024-01-29 16:55:11,0.0
592,251,4190,-40,-33,7,2024-01-29 16:55:11,0.0
565,254,4208,-45,-23,7,2024-01-29 16:55:11,0.0
581,257,4198,-36,-18,13,2024-01-29 16:55:11,0.0
559,265,4218,-45,-20,12,2024-01-29 16:55:11,0.0
548,253,4171,-37,-24,9,2024-01-29 16:55:11,0.0
560,271,4210,-52,-24,12,2024-01-29 16:55:11,0.0
519,286,4232,-46,-36,10,2024-01-29 16:55:11,0.0
581,306,4227,-31,-47,10,2024-01-29 16:55:11,0.0
572,288,4184,-36,-53,6,2024-01-29 16:55:11,0.0
592,293,4224,-27,-45,12,2024-01-29 16:55:11,0.0
544,263,4197,-30,-62,9,2024-01-29 16:55:11,0.0
609,285,4209,-45,-45,5,2024-01-29 16:55:11,0.0
605,265,4176,-36,-85,5,2024-01-29 16:55:11,0.0
621,306,4171,-29,-57,13,2024-01-29 16:55:11,0.0
645,290,4199,-33,-44,11,2024-01-29 16:55:12,0.0
615,251,4215,-32,-50,5,2024-01-29 16:55:12,0.0
666,260,4196,-38,-39,6,2024-01-29 16:55:12,0.0
622,276,4195,-35,-49,10,2024-01-29 16:55:12,0.0
630,292,4216,-37,-40,10,2024-01-29 16:55:12,0.0
636,294,4196,-34,-49,6,2024-01-29 16:55:12,0.0
644,281,4150,-45,-27,8,2024-01-29 16:55:12,0.0
630,292,4183,-50,-12,6,2024-01-29 16:55:12,0.0
649,295,4241,-45,-28,11,2024-01-29 16:55:12,0.0
641,304,4203,-39,-31,9,2024-01-29 16:55:12,0.0
662,295,4177,-34,-12,9,2024-01-29 16:55:12,0.0
613,273,4163,-43,-37,15,2024-01-29 16:55:12,0.0
633,324,4189,-39,-20,6,2024-01-29 16:55:12,0.0
642,268,4159,-44,-39,7,2024-01-29 16:55:12,0.0
679,295,4181,-35,-12,12,2024-01-29 16:55:12,0.0
633,318,4199,-41,-24,10,2024-01-29 16:55:12,0.0
627,277,4178,-38,-25,11,2024-01-29 16:55:12,0.0
628,296,4219,-41,-27,9,2024-01-29 16:55:12,0.0
635,292,4192,-42,-29,12,2024-01-29 16:55:13,0.0
640,263,4184,-35,-27,11,2024-01-29 16:55:13,0.0
676,254,4161,-51,-35,7,2024-01-29 16:55:13,0.0
586,298,4179,-44,-49,4,2024-01-29 16:55:13,0.0
635,263,4199,-44,-10,10,2024-01-29 16:55:13,0.0
638,278,4178,-42,-12,8,2024-01-29 16:55:13,0.0
620,262,4146,-41,31,12,2024-01-29 16:55:13,0.0
618,273,4237,-44,-26,12,2024-01-29 16:55:13,0.0
608,275,4155,-49,8,7,2024-01-29 16:55:13,0.0
596,279,4188,-51,-15,4,2024-01-29 16:55:13,0.0
622,294,4196,-39,-9,10,2024-01-29 16:55:13,0.0
600,290,4161,-43,-4,12,2024-01-29 16:55:13,0.0
581,277,4155,-44,-4,10,2024-01-29 16:55:13,0.0
596,268,4211,-46,-5,7,2024-01-29 16:55:13,0.0
555,284,4209,-46,-7,11,2024-01-29 16:55:13,0.0
558,274,4178,-47,-17,9,2024-01-29 16:55:13,0.0
580,283,4125,-61,14,4,2024-01-29 16:55:13,0.0
555,273,4213,-43,-32,10,2024-01-29 16:55:14,0.0
559,268,4219,-43,-12,11,2024-01-29 16:55:14,0.0
559,275,4156,-40,-1,10,2024-01-29 16:55:14,0.0
528,256,4233,-40,-29,11,2024-01-29 16:55:14,0.0
593,290,4126,-44,-8,10,2024-01-29 16:55:14,0.0
554,293,4201,-46,-42,8,2024-01-29 16:55:14,0.0
591,268,4193,-37,-34,10,2024-01-29 16:55:14,0.0
571,276,4356,-28,-40,1,2024-01-29 16:55:14,0.0
722,262,4058,50,108,-6,2024-01-29 16:55:14,0.0
519,315,4228,-47,511,13,2024-01-29 16:55:14,0.0
303,195,4332,-132,181,16,2024-01-29 16:55:14,0.0
380,151,3626,-7,165,51,2024-01-29 16:55:14,0.0
444,458,4629,-17,249,37,2024-01-29 16:55:14,0.0
179,288,4662,-27,-16,44,2024-01-29 16:55:14,0.0
-138,192,4014,-22,-199,76,2024-01-29 16:55:14,0.0
-88,19,3807,103,-406,131,2024-01-29 16:55:14,0.0
76,558,4325,36,-683,95,2024-01-29 16:55:14,0.0
542,188,4598,35,-844,87,2024-01-29 16:55:14,0.0
416,525,4512,-14,-1317,109,2024-01-29 16:55:15,0.0
837,485,4091,-62,-1222,39,2024-01-29 16:55:15,0.0
1323,316,3329,-98,-1183,85,2024-01-29 16:55:15,0.0
1331,320,4170,-102,-1193,93,2024-01-29 16:55:15,0.0
2439,422,4660,-58,-916,94,2024-01-29 16:55:15,0.0
3532,151,2033,-147,-991,143,2024-01-29 16:55:15,0.0
2563,452,3312,-269,-1816,-116,2024-01-29 16:55:15,
2254,-814,4722,471,-1525,81,2024-01-29 16:55:15,0.0
3431,-253,2451,183,-1395,-169,2024-01-29 16:55:15,0.0
3575,268,2454,167,-1801,-286,2024-01-29 16:55:15,0.0
3047,93,2965,389,-1545,-397,2024-01-29 16:55:15,0.0
3920,842,2035,231,-1309,-496,2024-01-29 16:55:15,0.0
4087,607,2027,545,-1149,-348,2024-01-29 16:55:15,0.0
4282,1435,3211,490,-1027,-390,2024-01-29 16:55:15,0.0
4448,1325,1663,351,-382,-189,2024-01-29 16:55:16,0.0
4595,1473,1311,182,-268,-104,2024-01-29 16:55:16,0.0
4147,1757,1727,-454,496,-127,2024-01-29 16:55:16,0.0
3713,1579,1960,-461,1231,-120,2024-01-29 16:55:16,0.0
2920,1145,1617,-644,681,-297,2024-01-29 16:55:16,0.0
2585,1616,2052,-574,997,-381,2024-01-29 16:55:16,0.0
3204,1101,1013,5,546,-221,2024-01-29 16:55:16,0.0
2302,839,3216,669,461,-649,2024-01-29 16:55:16,0.0
2693,1816,1994,1153,369,-215,2024-01-29 16:55:16,0.0
1992,1631,2657,951,-385,304,2024-01-29 16:55:16,0.0
2885,1517,948,900,-359,709,2024-01-29 16:55:16,0.0
3158,883,1483,1406,-1439,1128,2024-01-29 16:55:16,0.0
5480,1939,-3,1298,-1794,1676,2024-01-29 16:55:16,0.0
6794,986,-569,1038,-2737,1842,2024-01-29 16:55:16,0.0
6666,108,-652,669,-1807,1199,2024-01-29 16:55:16,0.0
5951,436,-1175,395,-1511,581,2024-01-29 16:55:16,0.0
4904,360,-1235,323,-946,561,2024-01-29 16:55:16,0.0
4876,404,-1255,-37,-672,405,2024-01-29 16:55:16,0.0
4511,532,-1292,-415,-182,351,2024-01-29 16:55:16,0.0
4306,323,-1017,-627,-110,421,2024-01-29 16:55:16,0.0
4266,610,-1046,-877,-40,367,2024-01-29 16:55:16,0.0
3806,563,-1036,-925,-90,369,2024-01-29 16:55:17,0.0
3728,-103,-802,-1034,-49,448,2024-01-29 16:55:17,0.0
3493,337,-1055,-1004,96,337,2024-01-29 16:55:17,0.0
3117,-444,-983,-842,-3,292,2024-01-29 16:55:17,0.0
2624,-717,-948,-373,-224,366,2024-01-29 16:55:17,0.0
2953,-987,-952,-232,-164,495,2024-01-29 16:55:17,0.0
3739,-651,-604,-584,472,51,2024-01-29 16:55:17,0.0
2956,15,-365,-709,385,-124,2024-01-29 16:55:17,0.0
4478,-846,-1210,-542,-300,8,2024-01-29 16:55:17,0.0
5155,-399,-1678,-133,597,33,2024-01-29 16:55:17,0.0
3748,-56,-1164,-200,780,-43,2024-01-29 16:55:17,0.0
2788,582,-951,-496,-67,-218,2024-01-29 16:55:17,0.0
4360,469,-755,-288,-66,-152,2024-01-29 16:55:17,0.0
5052,545,-477,420,235,-107,2024-01-29 16:55:17,0.0
4533,1103,-755,191,231,-11,2024-01-29 16:55:17,0.0
4690,646,-1363,-86,-381,50,2024-01-29 16:55:17,0.0
4206,-22,-742,-169,245,-32,2024-01-29 16:55:17,0.0
3633,279,-500,128,31,7,2024-01-29 16:55:18,0.0
3887,228,-833,-40,-147,51,2024-01-29 16:55:18,0.0
4060,-74,-723,-28,34,78,2024-01-29 16:55:18,0.0
4356,75,-665,15,-71,125,2024-01-29 16:55:18,0.0
4469,166,-824,-50,0,46,2024-01-29 16:55:18,0.0
4208,283,-716,-217,-55,49,2024-01-29 16:55:18,0.0
4190,87,-774,-189,-47,54,2024-01-29 16:55:18,0.0
4290,-93,-545,-192,-28,136,2024-01-29 16:55:18,0.0
4180,-81,-638,-91,-10,61,2024-01-29 16:55:18,0.0
4337,40,-614,-130,24,45,2024-01-29 16:55:18,0.0
4510,-161,-710,-32,138,45,2024-01-29 16:55:18,0.0
4420,156,-525,-131,155,-4,2024-01-29 16:55:18,0.0
4315,-114,-610,-75,60,39,2024-01-29 16:55:18,0.0
4211,13,-444,-71,81,22,2024-01-29 16:55:18,0.0
4272,-12,-500,-83,-25,31,2024-01-29 16:55:18,0.0
4333,86,-490,-104,-19,59,2024-01-29 16:55:18,0.0
4421,-89,-451,-92,14,67,2024-01-29 16:55:18,0.0
4301,103,-428,-111,-6,48,2024-01-29 16:55:18,0.0
4292,-10,-454,-142,25,63,2024-01-29 16:55:19,0.0
4339,28,-434,-130,-6,41,2024-01-29 16:55:19,0.0
4323,-61,-454,-116,-9,40,2024-01-29 16:55:19,0.0
4353,-89,-472,-90,-6,32,2024-01-29 16:55:19,0.0
4283,29,-456,-100,-18,27,2024-01-29 16:55:19,0.0
4330,-114,-479,-91,3,38,2024-01-29 16:55:19,0.0
4296,-72,-453,-80,-11,27,2024-01-29 16:55:19,0.0
4311,-111,-452,-40,8,29,2024-01-29 16:55:19,0.0
4371,-72,-460,-17,34,24,2024-01-29 16:55:19,0.0
4308,-95,-409,-6,14,26,2024-01-29 16:55:19,0.0
4377,-29,-389,-24,-5,19,2024-01-29 16:55:19,0.0
4298,-74,-399,-56,-16,20,2024-01-29 16:55:19,0.0
4275,-104,-428,-57,-30,16,2024-01-29 16:55:19,0.0
4363,-63,-311,-39,-15,18,2024-01-29 16:55:19,0.0
4304,-89,-375,-17,-59,6,2024-01-29 16:55:19,0.0
4387,-63,-337,-38,-98,21,2024-01-29 16:55:19,0.0
4323,-123,-408,-38,57,17,2024-01-29 16:55:19,0.0
4233,-101,-322,-20,-78,5,2024-01-29 16:55:20,0.0
4374,17,-454,-72,58,9,2024-01-29 16:55:20,0.0
4320,-128,-242,-78,10,3,2024-01-29 16:55:20,0.0
4414,-33,-403,-103,44,-20,2024-01-29 16:55:20,0.0
4299,-96,-242,-91,43,7,2024-01-29 16:55:20,0.0
4290,-61,-373,-68,-49,1,2024-01-29 16:55:20,0.0
4354,-85,-246,-43,20,6,2024-01-29 16:55:20,0.0
4353,-65,-202,-36,0,-4,2024-01-29 16:55:20,0.0
4362,-43,-223,-26,7,0,2024-01-29 16:55:20,0.0
4406,-81,-243,-16,28,-1,2024-01-29 16:55:20,0.0
4298,-31,-336,-38,-37,7,2024-01-29 16:55:20,0.0
4298,-44,-239,-46,2,26,2024-01-29 16:55:20,0.0
4411,-118,-427,-46,-35,4,2024-01-29 16:55:20,0.0
4364,-47,-297,-65,-8,-9,2024-01-29 16:55:20,0.0
4338,-91,-252,-44,5,-5,2024-01-29 16:55:20,0.0
4263,-50,-226,-33,-100,-6,2024-01-29 16:55:20,0.0
4291,-42,-259,-38,22,5,2024-01-29 16:55:20,0.0
4348,-88,-190,19,-12,12,2024-01-29 16:55:20,0.0
4348,-27,-283,47,-14,23,2024-01-29 16:55:21,0.0
4446,-9,-346,61,27,-5,2024-01-29 16:55:21,
4324,18,-245,16,55,23,2024-01-29 16:55:21,0.0
4334,-39,-289,-23,58,12,2024-01-29 16:55:21,0.0
4251,-26,-270,-51,-20,43,2024-01-29 16:55:21,0.0
4326,-43,-190,-55,40,38,2024-01-29 16:55:21,0.0
4437,-57,-275,-45,-22,24,2024-01-29 16:55:21,0.0
4301,-23,-228,-75,86,18,2024-01-29 16:55:21,0.0
4352,-98,-182,-75,-37,7,2024-01-29 16:55:21,0.0
4322,-43,-224,-87,-10,-7,2024-01-29 16:55:21,0.0
4359,-79,-191,-96,8,5,2024-01-29 16:55:21,0.0
4292,-55,-143,-103,6,20,2024-01-29 16:55:21,0.0
4329,-76,-128,-101,50,20,2024-01-29 16:55:21,0.0
4325,-86,-90,-76,19,28,2024-01-29 16:55:21,0.0
4359,-89,-75,-39,10,21,2024-01-29 16:55:21,0.0
4490,-82,-107,-9,67,12,2024-01-29 16:55:21,0.0
4310,-97,-106,-17,287,24,2024-01-29 16:55:21,0.0
4314,-187,-73,-2,270,22,2024-01-29 16:55:22,0.0
4278,-99,114,19,122,14,2024-01-29 16:55:22,0.0
4332,-144,149,48,13,55,2024-01-29 16:55:22,0.0
4386,-123,137,20,-20,32,2024-01-29 16:55:22,0.0
4313,-87,182,0,19,30,2024-01-29 16:55:22,0.0
4312,-50,176,-21,-7,20,2024-01-29 16:55:22,0.0
4338,-74,260,-68,25,1,2024-01-29 16:55:22,0.0
4430,-131,194,-60,16,22,2024-01-29 16:55:22,0.0
4341,-109,111,-44,43,-11,2024-01-29 16:55:22,0.0
4296,-144,200,5,58,29,2024-01-29 16:55:22,0.0
4250,-70,208,9,32,-16,2024-01-29 16:55:22,0.0
4339,-61,210,-21,4,11,2024-01-29 16:55:22,0.0
4307,-65,202,-54,-37,6,2024-01-29 16:55:22,0.0
4342,-92,186,-75,-38,-4,2024-01-29 16:55:22,0.0
4377,-153,146,-56,-32,-8,2024-01-29 16:55:22,0.0
4335,-189,179,-5,4,-13,2024-01-29 16:55:22,0.0
4275,-140,202,21,14,6,2024-01-29 16:55:22,0.0
4309,-63,290,9,-41,12,2024-01-29 16:55:22,0.0
4319,65,258,-60,-40,42,2024-01-29 16:55:23,0.0
4369,14,291,-148,20,42,2024-01-29 16:55:23,0.0
4363,-54,282,-192,73,14,2024-01-29 16:55:23,0.0
4179,-204,301,-156,215,25,2024-01-29 16:55:23,0.0
4588,-218,313,-52,111,-41,2024-01-29 16:55:23,0.0
4402,-115,298,-16,-186,53,2024-01-29 16:55:23,0.0
4347,-70,217,-18,-103,15,2024-01-29 16:55:23,0.0
4338,-136,237,-8,-125,21,2024-01-29 16:55:23,0.0
4315,-198,230,24,-100,7,2024-01-29 16:55:23,0.0
4385,-155,151,-76,142,37,2024-01-29 16:55:23,0.0
4294,-157,218,-17,148,59,2024-01-29 16:55:23,0.0
4261,-122,437,-44,293,-19,2024-01-29 16:55:23,0.0
4414,-5,365,-50,95,29,2024-01-29 16:55:23,0.0
4189,-247,317,-25,-123,26,2024-01-29 16:55:23,0.0
4504,-209,168,-53,0,28,2024-01-29 16:55:23,0.0
4261,9,318,-16,-37,7,2024-01-29 16:55:23,0.0
4403,-157,264,-42,-219,61,2024-01-29 16:55:23,0.0
4403,-123,323,-15,-234,17,2024-01-29 16:55:24,0.0
4379,-223,229,-25,-131,32,2024-01-29 16:55:24,0.0
4293,-100,110,-23,-7,-15,2024-01-29 16:55:24,0.0
4469,-164,151,-22,-124,-3,2024-01-29 16:55:24,0.0
4167,-76,192,-5,-200,21,2024-01-29 16:55:24,0.0
4360,-163,62,5,-374,14,2024-01-29 16:55:24,0.0
4382,-151,-66,-24,27,-2,2024-01-29 16:55:24,0.0
4361,-131,128,-104,-65,13,2024-01-29 16:55:24,0.0
4411,-156,-25,-75,-79,32,2024-01-29 16:55:24,0.0
4295,-180,28,-34,-41,20,2024-01-29 16:55:24,0.0
4332,-163,-22,-12,-43,26,2024-01-29 16:55:24,0.0
4269,-96,40,-49,-35,23,2024-01-29 16:55:24,0.0
4405,-263,-16,-54,-29,18,2024-01-29 16:55:24,0.0
4381,-66,11,-132,-54,-40,2024-01-29 16:55:24,0.0
4341,-362,-17,-63,-44,4,2024-01-29 16:55:24,0.0
4380,-176,-70,-45,-44,-61,2024-01-29 16:55:24,0.0
4248,-246,-59,70,-70,-25,2024-01-29 16:55:24,0.0
4189,-112,-53,66,-30,-32,2024-01-29 16:55:24,0.0
4445,-123,-47,11,-132,-16,2024-01-29 16:55:25,0.0
4502,-130,-80,0,-39,-46,2024-01-29 16:55:25,0.0
4287,-187,-34,58,-58,-55,2024-01-29 16:55:25,0.0
4262,18,-9,80,-153,-55,2024-01-29 16:55:25,0.0
4314,189,-2,-200,-99,-56,2024-01-29 16:55:25,0.0
4337,-41,-117,-282,-125,41,2024-01-29 16:55:25,0.0
4412,-196,-164,-230,-20,2,2024-01-29 16:55:25,0.0
4457,-132,-7,-83,-5,-36,2024-01-29 16:55:25,0.0
4386,-37,-144,0,17,-40,2024-01-29 16:55:25,0.0
4368,-67,-125,43,23,2,2024-01-29 16:55:25,0.0
4249,24,3,34,20,16,2024-01-29 16:55:25,0.0
4298,-24,-41,48,-21,-6,2024-01-29 16:55:25,0.0
4340,74,-144,51,-48,-8,2024-01-29 16:55:25,0.0
4422,105,-85,4,-26,2,2024-01-29 16:55:25,0.0
4324,78,-51,-27,-35,-3,2024-01-29 16:55:25,0.0
4330,35,-89,-71,-52,16,2024-01-29 16:55:25,0.0
4257,-29,-112,-65,-35,7,2024-01-29 16:55:25,0.0
4366,-9,-143,-23,-103,18,2024-01-29 16:55:26,0.0
4358,16,-73,-38,-67,8,2024-01-29 16:55:26,0.0
4376,-9,-172,-36,-74,18,2024-01-29 16:55:26,0.0
4335,-3,-137,-48,-41,20,2024-01-29 16:55:26,0.0
4303,42,-94,-86,-66,23,2024-01-29 16:55:26,0.0
4360,-36,-180,-88,-42,24,2024-01-29 16:55:26,0.0
4339,-23,-152,-98,-52,0,2024-01-29 16:55:26,0.0
4383,-14,-181,-87,-17,4,2024-01-29 16:55:26,0.0
4310,-47,-157,-83,-5,-2,2024-01-29 16:55:26,0.0
4340,-18,-128,-69,-12,-1,2024-01-29 16:55:26,0.0
4426,-45,-194,-58,2,3,2024-01-29 16:55:26,0.0
4338,-27,-129,-33,-28,15,2024-01-29 16:55:26,0.0
4354,-78,-219,5,-10,23,2024-01-29 16:55:26,0.0
4448,-54,-200,22,-11,22,2024-01-29 16:55:26,0.0
4420,10,-261,16,11,27,2024-01-29 16:55:26,
4346,-26,-335,-2,30,38,2024-01-29 16:55:26,0.0
4407,-93,-362,46,61,24,2024-01-29 16:55:26,0.0
4357,-60,-218,96,202,60,2024-01-29 16:55:26,0.0
4228,-155,-133,97,220,52,2024-01-29 16:55:27,0.0
4433,-74,-228,108,277,66,2024-01-29 16:55:27,0.0
4249,-169,-194,113,290,49,2024-01-29 16:55:27,0.0
4363,-25,-188,97,336,66,2024-01-29 16:55:27,0.0
4107,-194,-250,87,410,70,2024-01-29 16:55:27,0.0
3878,-37,-327,72,409,116,2024-01-29 16:55:27,0.0
3861,-86,-307,49,538,66,2024-01-29 16:55:27,0.0
3131,-71,-185,-18,598,-30,2024-01-29 16:55:27,0.0
2320,-113,-785,-172,84,-90,2024-01-29 16:55:27,0.0
1630,328,262,-102,371,-181,2024-01-29 16:55:27,0.0
1975,-286,-65,-50,963,-48,2024-01-29 16:55:27,0.0
3279,134,21,-360,1100,-87,2024-01-29 16:55:27,0.0
2120,254,1230,-851,1153,-33,2024-01-29 16:55:27,0.0
4958,-1798,126,-220,1799,579,2024-01-29 16:55:27,0.0
2574,474,229,712,1046,422,2024-01-29 16:55:27,0.0
873,74,395,555,1417,-668,2024-01-29 16:55:27,0.0
7824,2192,15447,345,4307,265,2024-01-29 16:55:27,0.0
4997,-1109,10738,-62,5513,-752,2024-01-29 16:55:28,0.0
-647,862,2936,518,3729,437,2024-01-29 16:55:28,0.0
-3910,819,4443,-306,1590,-551,2024-01-29 16:55:28,0.0
-308,-74,1950,173,988,187,2024-01-29 16:55:28,0.0
-2013,-143,3607,270,-83,6,2024-01-29 16:55:28,0.0
-644,822,3595,277,344,126,2024-01-29 16:55:28,0.0
265,877,4320,184,-151,8,2024-01-29 16:55:28,0.0
-447,759,4931,141,104,17,2024-01-29 16:55:28,0.0
-283,762,3720,10,-23,-14,2024-01-29 16:55:28,0.0
-770,829,4471,-26,-397,117,2024-01-29 16:55:28,0.0
-213,563,3335,-167,-705,57,2024-01-29 16:55:28,0.0
-101,420,4051,-188,-453,16,2024-01-29 16:55:28,0.0
115,747,4717,-213,-361,-11,2024-01-29 16:55:28,0.0
307,119,4196,-34,-387,109,2024-01-29 16:55:28,0.0
-160,703,3222,-92,-360,41,2024-01-29 16:55:28,0.0
596,327,4038,-17,-89,107,2024-01-29 16:55:28,0.0
504,819,4810,-78,-393,44,2024-01-29 16:55:28,0.0
502,498,4581,-62,-273,88,2024-01-29 16:55:29,0.0
879,350,3616,-68,-145,48,2024-01-29 16:55:29,0.0
642,222,4125,-60,-262,14,2024-01-29 16:55:29,0.0
671,928,4446,-13,-245,-3,2024-01-29 16:55:29,0.0
703,184,4193,-52,-102,-73,2024-01-29 16:55:29,0.0
895,516,3723,33,-229,2,2024-01-29 16:55:29,0.0
450,837,4463,-169,-97,-21,2024-01-29 16:55:29,0.0
1055,200,3942,22,59,-39,2024-01-29 16:55:29,0.0
564,334,4345,-116,142,95,2024-01-29 16:55:29,0.0
852,681,3820,107,-89,39,2024-01-29 16:55:29,0.0
747,836,4081,-181,175,-139,2024-01-29 16:55:29,0.0
575,433,4378,-78,-22,-15,2024-01-29 16:55:29,0.0
620,445,4170,-55,142,31,2024-01-29 16:55:29,0.0
466,473,4143,-154,13,-40,2024-01-29 16:55:29,0.0
634,417,4180,-59,-4,-24,2024-01-29 16:55:29,0.0
629,476,4181,-65,84,-2,2024-01-29 16:55:29,0.0
506,432,4197,-75,9,13,2024-01-29 16:55:29,0.0
551,452,4142,9,-56,32,2024-01-29 16:55:29,0.0
570,455,4128,-45,24,26,2024-01-29 16:55:30,0.0
522,518,4168,-62,-6,20,2024-01-29 16:55:30,0.0
533,460,4118,-104,-18,-3,2024-01-29 16:55:30,0.0
600,447,4247,-61,-110,4,2024-01-29 16:55:30,0.0
556,452,4147,-66,-56,5,2024-01-29 16:55:30,0.0
549,408,4269,-49,-88,4,2024-01-29 16:55:30,0.0
612,429,4121,-35,-53,12,2024-01-29 16:55:30,0.0
628,431,4164,-68,-63,-2,2024-01-29 16:55:30,0.0
566,409,4168,-51,-54,4,2024-01-29 16:55:30,0.0
574,417,4145,-31,-46,11,2024-01-29 16:55:30,0.0
578,443,4211,-53,-67,3,2024-01-29 16:55:30,0.0
635,408,4198,-18,-41,20,2024-01-29 16:55:30,0.0
646,469,4169,-40,-63,6,2024-01-29 16:55:30,0.0
648,396,4168,-50,-62,6,2024-01-29 16:55:30,0.0
605,417,4240,-39,-61,5,2024-01-29 16:55:30,0.0
637,457,4148,-32,-55,13,2024-01-29 16:55:30,0.0
642,441,4152,-41,-24,11,2024-01-29 16:55:30,0.0
643,443,4139,-33,-39,11,2024-01-29 16:55:31,0.0
674,400,4128,-48,0,9,2024-01-29 16:55:31,0.0
630,434,4164,-41,-1,11,2024-01-29 16:55:31,0.0
656,391,4190,-54,28,10,2024-01-29 16:55:31,0.0
627,422,4105,-48,48,7,2024-01-29 16:55:31,0.0
572,408,4160,-49,-2,12,2024-01-29 16:55:31,0.0
601,418,4158,-39,11,10,2024-01-29 16:55:31,0.0
607,431,4143,-49,48,10,2024-01-29 16:55:31,0.0
491,431,4206,-47,-32,12,2024-01-29 16:55:31,0.0
606,402,4163,-49,19,8,2024-01-29 16:55:31,0.0
539,419,4248,-42,10,8,2024-01-29 16:55:31,0.0
578,382,4195,-38,-6,8,2024-01-29 16:55:31,0.0
511,403,4221,-49,17,5,2024-01-29 16:55:31,0.0
537,430,4226,-36,-30,8,2024-01-29 16:55:31,0.0
514,429,4146,-39,0,11,2024-01-29 16:55:31,0.0
532,419,4181,-35,-41,7,2024-01-29 16:55:31,0.0
499,414,4188,-35,-29,11,2024-01-29 16:55:31,0.0
467,414,4193,-42,-62,5,2024-01-29 16:55:31,0.0
636,439,4197,-53,-58,1,2024-01-29 16:55:32,0.0
533,413,4152,-30,-51,10,2024-01-29 16:55:32,0.0
526,441,4206,-31,-66,11,2024-01-29 16:55:32,0.0
615,384,4196,-40,-27,8,2024-01-29 16:55:32,0.0
496,391,4222,-35,-63,10,2024-01-29 16:55:32,0.0
616,388,4134,-52,-40,4,2024-01-29 16:55:32,0.0
533,403,4241,-41,-113,0,2024-01-29 16:55:32,0.0
618,430,4134,-32,-84,6,2024-01-29 16:55:32,0.0
610,412,4172,-32,-58,13,2024-01-29 16:55:32,0.0
615,432,4152,-37,-53,6,2024-01-29 16:55:32,
646,404,4175,-34,-62,9,2024-01-29 16:55:32,0.0
633,423,4134,-41,-44,7,2024-01-29 16:55:32,0.0
621,426,4223,-37,-40,8,2024-01-29 16:55:32,0.0
631,427,4167,-35,-48,12,2024-01-29 16:55:32,0.0
622,407,4212,-42,-42,9,2024-01-29 16:55:32,0.0
684,408,4119,-53,21,5,2024-01-29 16:55:32,0.0
639,407,4109,-40,32,8,2024-01-29 16:55:32,0.0
600,396,4133,-37,36,17,2024-01-29 16:55:33,0.0
624,434,4220,-39,8,12,2024-01-29 16:55:33,0.0
586,393,4176,-36,-20,12,2024-01-29 16:55:33,0.0
629,407,4143,-47,25,8,2024-01-29 16:55:33,0.0
559,416,4185,-44,-21,6,2024-01-29 16:55:33,0.0
598,417,4163,-35,-23,10,2024-01-29 16:55:33,0.0
550,426,4220,-38,-12,14,2024-01-29 16:55:33,0.0
570,400,4128,-37,-7,11,2024-01-29 16:55:33,0.0
565,405,4170,-40,-24,11,2024-01-29 16:55:33,0.0
548,448,4185,-45,-6,8,2024-01-29 16:55:33,0.0
557,416,4169,-41,-19,9,2024-01-29 16:55:33,0.0
565,408,4156,-39,-15,11,2024-01-29 16:55:33,0.0
524,417,4168,-47,-3,8,2024-01-29 16:55:33,0.0
601,403,4154,-55,40,4,2024-01-29 16:55:33,0.0
505,435,4211,-48,-31,9,2024-01-29 16:55:33,0.0
572,392,4231,-36,-20,12,2024-01-29 16:55:33,0.0
538,418,4191,-36,3,15,2024-01-29 16:55:33,0.0
516,441,4133,-37,-26,10,2024-01-29 16:55:33,0.0
598,376,4183,-51,14,11,2024-01-29 16:55:34,0.0
509,386,4198,-40,-19,8,2024-01-29 16:55:34,0.0
511,419,4209,-41,-34,7,2024-01-29 16:55:34,0.0
542,418,4143,-33,7,12,2024-01-29 16:55:34,0.0
498,408,4190,-43,-2,11,2024-01-29 16:55:34,0.0
530,401,4220,-38,-7,11,2024-01-29 16:55:34,0.0
482,398,4211,-36,-6,6,2024-01-29 16:55:34,0.0
535,415,4165,-47,-9,12,2024-01-29 16:55:34,0.0
487,389,4213,-42,3,8,2024-01-29 16:55:34,0.0
499,434,4185,-46,-27,12,2024-01-29 16:55:34,0.0
478,416,4201,-40,-29,12,2024-01-29 16:55:34,0.0
497,403,4195,-45,-32,8,2024-01-29 16:55:34,0.0
417,402,4150,-53,-14,7,2024-01-29 16:55:34,0.0
440,421,4243,-38,-45,10,2024-01-29 16:55:34,0.0
484,380,4186,-38,-28,9,2024-01-29 16:55:34,0.0
497,405,4200,-31,-49,9,2024-01-29 16:55:34,0.0
458,395,4196,-36,-54,10,2024-01-29 16:55:34,0.0
478,384,4188,-40,-60,6,2024-01-29 16:55:35,0.0
503,404,4182,-35,-78,5,2024-01-29 16:55:35,0.0
535,440,4196,-24,-56,11,2024-01-29 16:55:35,0.0
522,432,4225,-34,-60,9,2024-01-29 16:55:35,0.0
535,428,4183,-36,-59,6,2024-01-29 16:55:35,0.0
520,438,4182,-35,-54,4,2024-01-29 16:55:35,0.0
550,444,4189,-35,-55,8,2024-01-29 16:55:35,0.0
549,425,4172,-33,-38,12,2024-01-29 16:55:35,0.0
539,402,4198,-29,-52,14,2024-01-29 16:55:35,0.0
592,425,4163,-31,-51,7,2024-01-29 16:55:35,0.0
574,441,4179,-37,-48,11,2024-01-29 16:55:35,0.0
560,416,4139,-36,-61,3,2024-01-29 16:55:35,0.0
630,426,4210,-58,-24,6,2024-01-29 16:55:35,0.0
549,428,4104,-37,-81,1,2024-01-29 16:55:35,0.0
570,433,4260,-43,-68,9,2024-01-29 16:55:35,0.0
625,408,4165,-33,-52,8,2024-01-29 16:55:35,0.0
609,401,4149,-40,-50,7,2024-01-29 16:55:35,0.0
646,424,4132,-39,-47,10,2024-01-29 16:55:35,0.0
588,406,4181,-46,-53,11,2024-01-29 16:55:36,0.0
636,426,4207,-43,-67,6,2024-01-29 16:55:36,0.0
620,461,4186,-34,-50,12,2024-01-29 16:55:36,0.0
628,429,4154,-42,-53,11,2024-01-29 16:55:36,0.0
658,440,4152,-38,-66,7,2024-01-29 16:55:36,0.0
644,421,4169,-41,-58,7,2024-01-29 16:55:36,0.0
651,442,4203,-40,-53,12,2024-01-29 16:55:36,0.0
687,421,4169,-40,-49,10,2024-01-29 16:55:36,0.0
687,425,4141,-49,-26,6,2024-01-29 16:55:36,0.0
703,389,4104,-50,1,5,2024-01-29 16:55:36,0.0
640,422,4112,-50,19,10,2024-01-29 16:55:36,0.0
666,417,4217,-38,-10,12,2024-01-29 16:55:36,0.0
669,406,4102,-37,28,12,2024-01-29 16:55:36,0.0
603,401,4114,-54,44,11,2024-01-29 16:55:36,0.0
602,417,4208,-47,1,6,2024-01-29 16:55:36,0.0
596,404,4150,-35,17,4,2024-01-29 16:55:36,0.0
573,420,4211,-42,-16,13,2024-01-29 16:55:36,0.0
613,413,4204,-36,-9,8,2024-01-29 16:55:37,0.0
560,414,4185,-41,-26,9,2024-01-29 16:55:37,0.0
591,412,4136,-41,-30,10,2024-01-29 16:55:37,0.0
617,408,4178,-40,-8,13,2024-01-29 16:55:37,0.0
601,418,4160,-44,-21,7,2024-01-29 16:55:37,0.0
596,374,4144,-52,41,8,2024-01-29 16:55:37,0.0
566,416,4177,-22,50,7,2024-01-29 16:55:37,0.0
616,401,4398,-7,67,5,2024-01-29 16:55:37,0.0
646,498,3794,73,536,14,2024-01-29 16:55:37,0.0
559,466,4532,3,272,10,2024-01-29 16:55:37,0.0
140,438,4155,-60,95,-7,2024-01-29 16:55:37,0.0
299,575,4064,83,312,16,2024-01-29 16:55:37,0.0
326,497,5188,-66,289,-38,2024-01-29 16:55:37,0.0
-428,-34,4185,-108,20,31,2024-01-29 16:55:37,0.0
-448,320,3134,91,-321,152,2024-01-29 16:55:37,0.0
-55,949,4032,-156,-450,4,2024-01-29 16:55:37,0.0
141,403,4459,-153,-666,100,2024-01-29 16:55:37,0.0
138,475,4581,-126,-928,120,2024-01-29 16:55:37,0.0
470,374,4166,-73,-1072,102,2024-01-29 16:55:38,0.0
1149,349,3470,-124,-1001,108,2024-01-29 16:55:38,0.0
1449,428,3863,-216,-1016,36,2024-01-29 16:55:38,0.0
1580,195,4016,-179,-764,43,2024-01-29 16:55:38,0.0
1482,291,4064,-137,-1033,62,2024-01-29 16:55:38,
2146,342,3354,-158,-946,29,2024-01-29 16:55:38,0.0
2595,181,3120,-69,-823,64,2024-01-29 16:55:38,0.0
2371,35,3225,-103,-1240,50,2024-01-29 16:55:38,0.0
2209,260,4552,-51,-978,-9,2024-01-29 16:55:38,0.0
3011,112,2766,-82,-823,-58,2024-01-29 16:55:38,0.0
3052,207,2856,-5,-1256,-97,2024-01-29 16:55:38,0.0
2949,180,3086,399,-1104,-55,2024-01-29 16:55:38,0.0
2953,-369,3044,356,-1040,-490,2024-01-29 16:55:38,0.0
4519,-92,1746,57,-766,-624,2024-01-29 16:55:38,0.0
4019,120,2707,289,-1181,-623,2024-01-29 16:55:38,0.0
3673,695,2451,518,-879,-687,2024-01-29 16:55:38,0.0
3624,1186,1770,630,-1027,-818,2024-01-29 16:55:38,0.0
3854,1185,2022,718,-960,-849,2024-01-29 16:55:39,0.0
4365,1737,1746,936,-1147,-456,2024-01-29 16:55:39,0.0
3878,2924,1046,700,-924,-120,2024-01-29 16:55:39,0.0
3903,2631,723,393,-576,-47,2024-01-29 16:55:39,0.0
4301,2576,262,63,10,161,2024-01-29 16:55:39,0.0
4249,2064,582,-309,183,-54,2024-01-29 16:55:39,0.0
4651,1951,670,-569,942,56,2024-01-29 16:55:39,0.0
3617,1878,1302,-739,1056,116,2024-01-29 16:55:39,0.0
3482,1531,1360,-685,775,-9,2024-01-29 16:55:39,0.0
3131,882,1875,-383,880,-124,2024-01-29 16:55:39,0.0
2625,1137,1772,103,697,-328,2024-01-29 16:55:39,0.0
2312,1039,1563,781,520,-466,2024-01-29 16:55:39,0.0
2331,1457,1615,1251,304,-142,2024-01-29 16:55:39,0.0
1776,2803,2231,448,271,126,2024-01-29 16:55:39,0.0
2999,1599,1202,407,62,602,2024-01-29 16:55:39,0.0
2504,1780,1261,874,-547,878,2024-01-29 16:55:39,0.0
4014,2303,793,1610,-726,1288,2024-01-29 16:55:39,0.0
5130,2537,-149,1505,-1257,1497,2024-01-29 16:55:39,0.0
6599,1088,-336,1512,-1818,1687,2024-01-29 16:55:40,0.0
6725,564,-732,818,-1664,1254,2024-01-29 16:55:40,0.0
5708,500,-1353,155,-1545,785,2024-01-29 16:55:40,0.0
5180,327,-1318,-182,-1475,546,2024-01-29 16:55:40,0.0
4380,849,-1132,-394,-944,747,2024-01-29 16:55:40,0.0
4311,423,-1394,-453,-694,868,2024-01-29 16:55:40,0.0
4433,465,-1822,-619,-607,660,2024-01-29 16:55:40,0.0
4049,607,-1466,-576,-301,599,2024-01-29 16:55:40,0.0
4106,299,-1953,-568,-361,514,2024-01-29 16:55:40,0.0
3131,204,-1159,-725,-248,385,2024-01-29 16:55:40,0.0
3070,-456,-1283,-595,-236,328,2024-01-29 16:55:40,0.0
2500,-384,-866,-517,148,312,2024-01-29 16:55:40,0.0
2768,-959,-961,-162,-151,363,2024-01-29 16:55:41,0.0
4303,-956,-1478,-5,-48,464,2024-01-29 16:55:42,0.0
3894,662,-1160,-880,872,-167,2024-01-29 16:55:42,0.0
3191,665,-1286,-1824,866,-197,2024-01-29 16:55:42,0.0
4369,-1381,-1557,-838,553,327,2024-01-29 16:55:42,0.0
4100,506,-1600,-380,782,240,2024-01-29 16:55:42,0.0
3392,868,-1155,-1240,625,-7,2024-01-29 16:55:42,0.0
3619,-212,-668,-904,183,158,2024-01-29 16:55:42,0.0
4044,1010,-547,-652,436,93,2024-01-29 16:55:42,0.0
4415,-143,-1090,178,34,-79,2024-01-29 16:55:42,0.0
4235,-48,-857,213,197,-31,2024-01-29 16:55:42,0.0
4155,0,-599,159,264,7,2024-01-29 16:55:42,0.0
4124,-94,-626,60,327,19,2024-01-29 16:55:42,0.0
4232,-64,-440,26,59,51,2024-01-29 16:55:42,0.0
4352,-140,-438,-95,-29,-5,2024-01-29 16:55:42,0.0
4368,-287,-565,16,-175,49,2024-01-29 16:55:42,0.0
4275,-133,-697,37,-152,-14,2024-01-29 16:55:42,0.0
4278,-212,-624,87,-100,59,2024-01-29 16:55:42,0.0
4375,-162,-517,15,-13,58,2024-01-29 16:55:42,0.0
4308,-202,-505,-44,-14,48,2024-01-29 16:55:42,0.0
4327,-276,-511,-52,8,31,2024-01-29 16:55:42,0.0
4364,-302,-450,-25,39,25,2024-01-29 16:55:42,0.0
4333,-248,-485,23,14,9,2024-01-29 16:55:42,0.0
4329,-225,-515,65,-4,2,2024-01-29 16:55:42,0.0
4304,-151,-463,62,4,14,2024-01-29 16:55:42,0.0
4294,-204,-389,44,6,1,2024-01-29 16:55:43,0.0
4313,-168,-382,51,-10,4,2024-01-29 16:55:43,0.0
4392,-159,-380,31,100,-9,2024-01-29 16:55:43,0.0
4400,-131,-447,-12,22,-17,2024-01-29 16:55:43,0.0
4329,-139,-480,-67,112,-19,2024-01-29 16:55:43,0.0
4252,-113,-412,-107,-38,-9,2024-01-29 16:55:43,0.0
4315,-245,-362,-95,-56,-6,2024-01-29 16:55:43,0.0
4342,-135,-432,-71,-58,7,2024-01-29 16:55:43,0.0
4381,-207,-410,-47,-70,1,2024-01-29 16:55:43,0.0
4266,-146,-448,-28,-9,-7,2024-01-29 16:55:43,0.0
4301,-138,-389,-37,-66,-4,2024-01-29 16:55:43,0.0
4322,-135,-385,-59,-45,1,2024-01-29 16:55:43,0.0
4379,-126,-487,-65,-81,4,2024-01-29 16:55:43,0.0
4302,-161,-474,-88,-50,17,2024-01-29 16:55:43,0.0
4366,-195,-499,-76,-76,11,2024-01-29 16:55:43,0.0
4298,-130,-513,-65,-26,17,2024-01-29 16:55:43,0.0
4339,-182,-526,-69,44,20,2024-01-29 16:55:43,0.0
4308,-143,-475,-73,-1,24,2024-01-29 16:55:43,0.0
4258,-149,-467,-55,-11,16,2024-01-29 16:55:44,0.0
4290,-176,-442,-39,-94,12,2024-01-29 16:55:44,0.0
4304,-194,-515,-19,-123,9,2024-01-29 16:55:44,0.0
4347,-150,-545,-28,-35,14,2024-01-29 16:55:44,0.0
4323,-163,-498,-37,-39,17,2024-01-29 16:55:44,0.0
4339,-166,-463,-37,45,23,2024-01-29 16:55:44,0.0
4353,-168,-519,-31,2,19,2024-01-29 16:55:44,0.0
4351,-162,-478,-37,43,19,2024-01-29 16:55:44,0.0
4320,-132,-454,-41,9,15,2024-01-29 16:55:44,0.0
4346,-222,-446,-49,6,18,2024-01-29 16:55:44,0.0
4320,-213,-470,-36,-6,19,2024-01-29 16:55:44,0.0
4318,-209,-405,-9,-7,5,2024-01-29 16:55:44,0.0
4326,-134,-423,-20,16,19,2024-01-29 16:55:44,0.0
4322,-174,-378,-62,29,18,2024-01-29 16:55:44,0.0
4304,-172,-323,-60,-2,15,2024-01-29 16:55:44,
4314,-235,-401,-49,-4,4,2024-01-29 16:55:44,0.0
4323,-202,-321,-65,-10,-2,2024-01-29 16:55:44,0.0
4348,-178,-330,-87,13,-1,2024-01-29 16:55:45,0.0
4341,-206,-317,-93,26,8,2024-01-29 16:55:45,0.0
4342,-234,-344,-69,6,2,2024-01-29 16:55:45,0.0
4332,-226,-317,-19,17,4,2024-01-29 16:55:45,0.0
4328,-142,-414,-28,-12,-3,2024-01-29 16:55:45,0.0
4329,-146,-359,-53,5,1,2024-01-29 16:55:45,0.0
4356,-156,-333,-79,-8,0,2024-01-29 16:55:45,0.0
4353,-168,-324,-79,-28,0,2024-01-29 16:55:45,0.0
4302,-177,-342,-71,-52,2,2024-01-29 16:55:45,0.0
4308,-141,-382,-59,-64,1,2024-01-29 16:55:45,0.0
4362,-193,-350,-57,-74,3,2024-01-29 16:55:45,0.0
4372,-141,-381,-51,-66,7,2024-01-29 16:55:45,0.0
4334,-144,-401,-51,-43,9,2024-01-29 16:55:45,0.0
4316,-148,-436,-50,-54,11,2024-01-29 16:55:45,0.0
4308,-130,-437,-57,-43,12,2024-01-29 16:55:45,0.0
4385,-161,-361,-58,-56,12,2024-01-29 16:55:45,0.0
4361,-188,-406,-47,-37,8,2024-01-29 16:55:45,0.0
4313,-147,-388,-36,-72,4,2024-01-29 16:55:45,0.0
4359,-161,-405,-40,-63,-1,2024-01-29 16:55:46,0.0
4320,-105,-495,-68,-48,12,2024-01-29 16:55:46,0.0
4270,-202,-433,-63,-55,13,2024-01-29 16:55:46,0.0
4336,-180,-487,-46,-45,4,2024-01-29 16:55:46,0.0
4312,-148,-408,-55,-82,1,2024-01-29 16:55:46,0.0
4329,-203,-494,-46,-80,6,2024-01-29 16:55:46,0.0
4292,-127,-457,-39,-91,6,2024-01-29 16:55:46,0.0
4317,-144,-500,-51,-80,6,2024-01-29 16:55:46,0.0
4280,-163,-530,-41,-69,12,2024-01-29 16:55:46,0.0
4346,-174,-513,-30,-28,5,2024-01-29 16:55:46,0.0
4304,-148,-536,-6,-90,20,2024-01-29 16:55:46,0.0
4335,-131,-551,-4,-55,19,2024-01-29 16:55:46,0.0
4288,-139,-510,-11,-55,17,2024-01-29 16:55:46,0.0
4346,-155,-535,-19,-64,13,2024-01-29 16:55:46,0.0
4300,-151,-548,-37,-68,-1,2024-01-29 16:55:46,0.0
4317,-148,-534,-39,-79,7,2024-01-29 16:55:46,0.0
4362,-175,-625,-38,-78,11,2024-01-29 16:55:46,0.0
4325,-182,-589,-44,-55,9,2024-01-29 16:55:47,0.0
4310,-158,-580,-46,-48,11,2024-01-29 16:55:47,0.0
4278,-154,-600,-42,-58,10,2024-01-29 16:55:47,0.0
4291,-171,-593,-33,-51,10,2024-01-29 16:55:47,0.0
4339,-185,-557,-23,-53,12,2024-01-29 16:55:47,0.0
4302,-158,-617,-15,-59,4,2024-01-29 16:55:47,0.0
4301,-120,-620,-29,-80,2,2024-01-29 16:55:47,0.0
4314,-180,-618,-17,-46,1,2024-01-29 16:55:47,0.0
4268,-163,-599,-41,-66,3,2024-01-29 16:55:47,0.0
4279,-194,-674,-18,-11,8,2024-01-29 16:55:47,0.0
4277,-160,-629,-19,-33,7,2024-01-29 16:55:47,0.0
4322,-117,-674,-28,-41,2,2024-01-29 16:55:47,0.0
4292,-155,-642,-45,-61,0,2024-01-29 16:55:47,0.0
4279,-152,-643,-46,-48,3,2024-01-29 16:55:47,0.0
4304,-155,-640,-56,-39,5,2024-01-29 16:55:47,0.0
4285,-171,-662,-65,-58,7,2024-01-29 16:55:47,0.0
4305,-142,-711,-70,-63,9,2024-01-29 16:55:47,0.0
4325,-173,-654,-52,-22,15,2024-01-29 16:55:47,0.0
4275,-146,-694,-44,-2,22,2024-01-29 16:55:48,0.0
4288,-185,-662,-47,-11,19,2024-01-29 16:55:48,0.0
4292,-170,-662,-37,-17,16,2024-01-29 16:55:48,0.0
4287,-156,-666,-30,-11,15,2024-01-29 16:55:48,0.0
4308,-169,-638,-30,-11,19,2024-01-29 16:55:48,0.0
4311,-178,-634,-32,-10,18,2024-01-29 16:55:48,0.0
4282,-185,-686,-34,-27,16,2024-01-29 16:55:48,0.0
4292,-153,-658,-29,-27,18,2024-01-29 16:55:48,0.0
4288,-183,-631,-27,-60,14,2024-01-29 16:55:48,0.0
4300,-203,-697,-22,-27,9,2024-01-29 16:55:48,0.0
4323,-190,-616,-33,-4,10,2024-01-29 16:55:48,0.0
4303,-161,-671,-23,-4,9,2024-01-29 16:55:48,0.0
4327,-152,-630,-34,20,6,2024-01-29 16:55:48,0.0
4332,-185,-657,-39,8,12,2024-01-29 16:55:48,0.0
4312,-196,-635,-44,10,8,2024-01-29 16:55:48,0.0
4334,-185,-587,-32,11,14,2024-01-29 16:55:48,0.0
4310,-179,-589,-37,-10,12,2024-01-29 16:55:48,0.0
4306,-183,-613,-38,7,9,2024-01-29 16:55:49,0.0
4302,-190,-600,-41,0,11,2024-01-29 16:55:49,0.0
4318,-209,-609,-44,-10,11,2024-01-29 16:55:49,0.0
4329,-180,-551,-57,-1,11,2024-01-29 16:55:49,0.0
4302,-160,-576,-47,-11,10,2024-01-29 16:55:49,0.0
4309,-192,-530,-46,-20,8,2024-01-29 16:55:49,0.0
4300,-205,-538,-39,-18,7,2024-01-29 16:55:49,0.0
4310,-172,-542,-35,-27,6,2024-01-29 16:55:49,0.0
4303,-208,-561,-36,-8,7,2024-01-29 16:55:49,0.0
4308,-196,-577,-35,-28,6,2024-01-29 16:55:49,0.0
4302,-180,-510,-31,-16,8,2024-01-29 16:55:49,0.0
4311,-174,-546,-29,-22,9,2024-01-29 16:55:49,0.0
4284,-184,-564,-38,-20,8,2024-01-29 16:55:49,0.0
4309,-187,-489,-41,-18,9,2024-01-29 16:55:49,0.0
4308,-174,-492,-42,-20,5,2024-01-29 16:55:49,0.0
4315,-160,-516,-41,-19,-2,2024-01-29 16:55:49,0.0
4306,-140,-553,-32,-11,-2,2024-01-29 16:55:49,0.0
4320,-156,-538,-45,-14,7,2024-01-29 16:55:49,0.0
4323,-202,-527,-51,2,4,2024-01-29 16:55:50,0.0
4334,-122,-543,-60,35,7,2024-01-29 16:55:50,0.0
4302,-167,-489,-54,11,5,2024-01-29 16:55:50,0.0
4316,-145,-507,-36,-11,12,2024-01-29 16:55:50,0.0
4295,-168,-455,-33,-26,14,2024-01-29 16:55:50,0.0
4339,-177,-524,-8,-47,11,2024-01-29 16:55:50,0.0
4321,-133,-527,-24,-48,7,2024-01-29 16:55:50,0.0
4315,-167,-523,-37,-49,12,2024-01-29 16:55:50,0.0
4359,-154,-495,-35,-42,10,2024-01-29 16:55:50,0.0
4307,-155,-527,-47,-35,13,2024-01-29 16:55:50,
4289,-160,-499,-47,-49,5,2024-01-29 16:55:50,0.0
4294,-162,-519,-62,-66,3,2024-01-29 16:55:50,0.0
4285,-183,-541,-58,-70,5,2024-01-29 16:55:50,0.0
4443,-170,-626,-83,-72,9,2024-01-29 16:55:50,0.0
4377,-141,-725,-107,-28,38,2024-01-29 16:55:50,0.0
4391,-223,-718,-99,-15,47,2024-01-29 16:55:50,0.0
4171,-177,-619,-63,46,24,2024-01-29 16:55:50,0.0
4072,-253,-597,-26,-58,5,2024-01-29 16:55:51,0.0
4257,-161,-606,39,-71,-22,2024-01-29 16:55:51,0.0
4512,-93,-650,-50,-52,-43,2024-01-29 16:55:51,0.0
4445,-219,-496,-32,71,-31,2024-01-29 16:55:51,0.0
3921,-151,-357,4,18,-52,2024-01-29 16:55:51,0.0
4407,-133,-410,-21,-12,23,2024-01-29 16:55:51,0.0
4675,-123,-599,-20,17,28,2024-01-29 16:55:51,0.0
4725,-51,-593,-166,172,14,2024-01-29 16:55:51,0.0
3806,-87,-480,-211,221,75,2024-01-29 16:55:51,0.0
4177,-379,-566,-72,46,89,2024-01-29 16:55:51,0.0
4771,-122,-1258,-23,175,-30,2024-01-29 16:55:51,0.0
4398,-231,-396,27,399,88,2024-01-29 16:55:51,0.0
3247,-202,-247,156,141,129,2024-01-29 16:55:51,0.0
4091,-212,-1147,107,29,84,2024-01-29 16:55:51,0.0
4394,-150,-1143,10,431,26,2024-01-29 16:55:51,0.0
3343,290,-338,-211,540,40,2024-01-29 16:55:51,0.0
3284,-288,-783,-182,442,145,2024-01-29 16:55:51,0.0
4143,-395,-1047,-92,1073,-140,2024-01-29 16:55:51,0.0
2004,-516,280,-217,1243,-198,2024-01-29 16:55:52,0.0
2655,312,-410,-147,1196,55,2024-01-29 16:55:52,0.0
2135,-587,501,-354,807,-37,2024-01-29 16:55:52,0.0
1018,-249,619,-381,1031,-7,2024-01-29 16:55:52,0.0
4252,-466,101,-102,746,305,2024-01-29 16:55:52,0.0
1031,-257,2030,322,243,-118,2024-01-29 16:55:52,0.0
1734,-818,-893,1042,360,-640,2024-01-29 16:55:52,0.0
12869,739,11652,787,2644,-475,2024-01-29 16:55:52,0.0
11156,746,10719,270,7896,-782,2024-01-29 16:55:52,0.0
1245,389,3202,767,3701,-172,2024-01-29 16:55:52,0.0
-2192,703,2919,-92,1653,-277,2024-01-29 16:55:52,0.0
-1071,1292,2512,-105,1826,-28,2024-01-29 16:55:52,0.0
-593,165,3920,-252,389,-6,2024-01-29 16:55:52,0.0
-1832,485,4316,17,451,1,2024-01-29 16:55:52,0.0
539,265,3838,-8,-761,-105,2024-01-29 16:55:52,0.0
19,284,4699,114,-316,-17,2024-01-29 16:55:52,0.0
857,760,3528,88,-168,49,2024-01-29 16:55:52,0.0
243,478,3694,67,-302,69,2024-01-29 16:55:53,0.0
455,1031,4860,-104,-360,14,2024-01-29 16:55:53,0.0
638,339,4500,42,-439,-18,2024-01-29 16:55:53,0.0
590,594,4075,-152,-30,44,2024-01-29 16:55:53,0.0
856,496,3794,-35,-229,28,2024-01-29 16:55:53,0.0
631,501,4483,-42,-191,35,2024-01-29 16:55:53,0.0
830,423,4317,-61,-71,-17,2024-01-29 16:55:53,0.0
809,603,3705,-37,-201,39,2024-01-29 16:55:53,0.0
794,335,4084,-1,-260,24,2024-01-29 16:55:53,0.0
483,540,4485,-70,-290,-14,2024-01-29 16:55:53,0.0
1524,465,4236,71,119,4,2024-01-29 16:55:53,0.0
1019,500,3890,54,-219,37,2024-01-29 16:55:53,0.0
543,618,4311,8,-244,21,2024-01-29 16:55:53,0.0
1422,464,3940,16,-253,18,2024-01-29 16:55:53,0.0
868,781,4355,-34,-47,-53,2024-01-29 16:55:53,0.0
1535,446,3563,-49,-153,-41,2024-01-29 16:55:53,0.0
1392,355,4051,-15,-136,42,2024-01-29 16:55:53,0.0
896,844,4180,-72,211,48,2024-01-29 16:55:53,0.0
1014,742,4096,-46,1,-31,2024-01-29 16:55:54,0.0
892,545,3941,-137,37,-13,2024-01-29 16:55:54,0.0
1106,437,4180,-121,-90,18,2024-01-29 16:55:54,0.0
1065,484,4075,-89,-25,11,2024-01-29 16:55:54,0.0
1064,478,4238,-66,-84,-21,2024-01-29 16:55:54,0.0
1085,529,3977,-56,29,14,2024-01-29 16:55:54,0.0
986,486,4105,-13,-46,5,2024-01-29 16:55:54,0.0
1039,539,4057,-48,11,18,2024-01-29 16:55:54,0.0
984,480,4048,-9,5,15,2024-01-29 16:55:54,0.0
1038,555,4044,-34,82,19,2024-01-29 16:55:54,0.0
1022,544,4130,-23,96,6,2024-01-29 16:55:54,0.0
953,564,4075,-57,41,8,2024-01-29 16:55:54,0.0
915,533,4117,-57,128,10,2024-01-29 16:55:54,0.0
887,539,4088,-56,71,9,2024-01-29 16:55:54,0.0
893,491,4160,-28,27,11,2024-01-29 16:55:54,0.0
854,518,4116,-55,91,-4,2024-01-29 16:55:54,0.0
913,552,4076,-48,17,6,2024-01-29 16:55:54,0.0
808,495,4210,-20,27,9,2024-01-29 16:55:55,0.0
853,518,4171,-41,-37,9,2024-01-29 16:55:55,0.0
798,532,4162,-28,-29,9,2024-01-29 16:55:55,0.0
819,514,4144,-40,-43,8,2024-01-29 16:55:55,0.0
847,553,4116,-39,-46,9,2024-01-29 16:55:55,0.0
824,509,4191,-47,-90,2,2024-01-29 16:55:55,0.0
863,513,4100,-35,-54,11,2024-01-29 16:55:55,0.0
876,525,4172,-35,-51,13,2024-01-29 16:55:55,0.0
898,527,4112,-38,-69,10,2024-01-29 16:55:55,0.0
862,541,4179,-41,-80,8,2024-01-29 16:55:55,0.0
888,516,4067,-36,-46,11,2024-01-29 16:55:55,0.0
918,535,4185,-44,-44,5,2024-01-29 16:55:55,0.0
847,502,4085,-40,-81,9,2024-01-29 16:55:55,0.0
875,540,4220,-49,-106,8,2024-01-29 16:55:55,0.0
967,515,4063,-30,-30,13,2024-01-29 16:55:55,0.0
941,547,4150,-43,-89,11,2024-01-29 16:55:55,0.0
987,507,4081,-47,-39,11,2024-01-29 16:55:55,0.0
925,509,4117,-42,-36,11,2024-01-29 16:55:55,0.0
946,521,4071,-40,-33,8,2024-01-29 16:55:56,0.0
935,506,4107,-42,8,16,2024-01-29 16:55:56,0.0
913,529,4065,-44,-5,13,2024-01-29 16:55:56,0.0
952,510,4113,-41,14,13,2024-01-29 16:55:56,0.0
923,518,4108,-43,21,11,2024-01-29 16:55:56,
919,530,4141,-45,13,9,2024-01-29 16:55:56,0.0
896,500,4127,-40,45,3,2024-01-29 16:55:56,0.0
872,526,4093,-46,-3,9,2024-01-29 16:55:56,0.0
854,511,4153,-47,-6,10,2024-01-29 16:55:56,0.0
888,504,4147,-43,7,10,2024-01-29 16:55:56,0.0
878,504,4131,-46,-4,10,2024-01-29 16:55:56,0.0
853,517,4114,-49,22,8,2024-01-29 16:55:56,0.0
823,513,4170,-48,1,7,2024-01-29 16:55:56,0.0
879,504,4131,-41,34,10,2024-01-29 16:55:56,0.0
792,490,4187,-33,2,10,2024-01-29 16:55:56,0.0
834,514,4198,-45,0,10,2024-01-29 16:55:56,0.0
765,469,4118,-42,-23,9,2024-01-29 16:55:56,0.0
792,499,4163,-45,-33,11,2024-01-29 16:55:57,0.0
842,496,4172,-43,-46,10,2024-01-29 16:55:57,0.0
792,502,4171,-39,-59,7,2024-01-29 16:55:57,0.0
833,507,4178,-34,-38,11,2024-01-29 16:55:57,0.0
834,526,4127,-42,-57,13,2024-01-29 16:55:57,0.0
811,508,4104,-28,-64,6,2024-01-29 16:55:57,0.0
863,516,4126,-49,-39,8,2024-01-29 16:55:57,0.0
821,500,4115,-33,-77,6,2024-01-29 16:55:57,0.0
854,527,4101,-40,-51,11,2024-01-29 16:55:57,0.0
870,510,4148,-37,-72,10,2024-01-29 16:55:57,0.0
877,513,4138,-42,-48,8,2024-01-29 16:55:57,0.0
888,492,4120,-39,-45,9,2024-01-29 16:55:57,0.0
845,506,4160,-44,-38,14,2024-01-29 16:55:57,0.0
867,513,4112,-36,-43,10,2024-01-29 16:55:57,0.0
929,505,4165,-51,-19,10,2024-01-29 16:55:57,0.0
852,502,4131,-33,-41,7,2024-01-29 16:55:57,0.0
872,470,4139,-44,3,14,2024-01-29 16:55:57,0.0
874,551,4128,-48,5,14,2024-01-29 16:55:57,0.0
879,487,4117,-46,27,13,2024-01-29 16:55:58,0.0
851,477,4139,-31,7,6,2024-01-29 16:55:58,0.0
801,492,4164,-31,15,12,2024-01-29 16:55:58,0.0
838,477,4158,-29,6,14,2024-01-29 16:55:58,0.0
825,537,4115,-24,22,14,2024-01-29 16:55:58,0.0
820,519,4121,-41,13,7,2024-01-29 16:55:58,0.0
789,508,4212,-36,5,6,2024-01-29 16:55:58,0.0
782,520,4112,-47,20,7,2024-01-29 16:55:58,0.0
747,499,4150,-46,14,9,2024-01-29 16:55:58,0.0
749,499,4192,-42,-4,3,2024-01-29 16:55:58,0.0
822,512,4147,-43,-32,5,2024-01-29 16:55:58,0.0
721,496,4161,-33,-57,2,2024-01-29 16:55:58,0.0
771,528,4136,-27,-18,13,2024-01-29 16:55:58,0.0
760,523,4169,-32,-47,7,2024-01-29 16:55:58,0.0
766,522,4095,-37,-43,9,2024-01-29 16:55:58,0.0
785,505,4079,-44,-26,9,2024-01-29 16:55:58,0.0
779,508,4145,-43,-68,6,2024-01-29 16:55:58,0.0
796,510,4132,-39,-33,13,2024-01-29 16:55:59,0.0
785,513,4148,-44,-47,9,2024-01-29 16:55:59,0.0
781,510,4152,-38,-45,11,2024-01-29 16:55:59,0.0
787,513,4152,-41,-54,7,2024-01-29 16:55:59,0.0
805,521,4163,-33,-59,9,2024-01-29 16:55:59,0.0
817,524,4106,-38,-59,11,2024-01-29 16:55:59,0.0
807,502,4167,-39,-65,14,2024-01-29 16:55:59,0.0
839,527,4077,-47,-60,6,2024-01-29 16:55:59,0.0
865,479,4136,-47,-27,7,2024-01-29 16:55:59,0.0
832,539,4069,-41,-46,8,2024-01-29 16:55:59,0.0
847,510,4154,-38,-49,11,2024-01-29 16:55:59,0.0
880,490,4133,-35,-70,16,2024-01-29 16:55:59,0.0
885,533,4094,-41,-52,9,2024-01-29 16:55:59,0.0
898,490,4128,-45,-56,6,2024-01-29 16:55:59,0.0
864,510,4158,-46,-69,7,2024-01-29 16:55:59,0.0
899,533,4182,-37,-59,15,2024-01-29 16:55:59,0.0
893,532,4102,-37,-74,11,2024-01-29 16:55:59,0.0
920,483,4075,-40,-48,9,2024-01-29 16:55:59,0.0
917,518,4098,-45,-20,8,2024-01-29 16:56:00,0.0
920,529,4116,-42,-19,9,2024-01-29 16:56:00,0.0
899,488,4150,-42,-6,11,2024-01-29 16:56:00,0.0
920,518,4120,-48,19,10,2024-01-29 16:56:00,0.0
859,506,4098,-45,1,6,2024-01-29 16:56:00,0.0
844,532,4120,-50,-5,6,2024-01-29 16:56:00,0.0
860,501,4102,-41,-13,12,2024-01-29 16:56:00,0.0
885,494,4129,-47,23,12,2024-01-29 16:56:00,0.0
850,481,4128,-42,14,12,2024-01-29 16:56:00,0.0
860,495,4148,-43,16,6,2024-01-29 16:56:00,0.0
822,501,4138,-45,13,7,2024-01-29 16:56:00,0.0
833,496,4163,-40,19,9,2024-01-29 16:56:00,0.0
793,528,4139,-44,18,6,2024-01-29 16:56:00,0.0
766,491,4184,-40,6,9,2024-01-29 16:56:00,0.0
776,508,4156,-45,21,8,2024-01-29 16:56:00,0.0
759,500,4169,-39,38,4,2024-01-29 16:56:00,0.0
730,504,4162,-41,-1,10,2024-01-29 16:56:00,0.0
784,491,4141,-46,-4,6,2024-01-29 16:56:01,0.0
758,499,4112,-44,-18,6,2024-01-29 16:56:01,0.0
726,510,4167,-46,-21,7,2024-01-29 16:56:01,0.0
747,488,4175,-39,-16,7,2024-01-29 16:56:01,0.0
739,504,4138,-35,-20,8,2024-01-29 16:56:01,0.0
730,524,4183,-41,-25,7,2024-01-29 16:56:01,0.0
741,471,4141,-43,-4,8,2024-01-29 16:56:01,0.0
757,518,4112,-43,-40,8,2024-01-29 16:56:01,0.0
752,517,4120,-50,25,7,2024-01-29 16:56:01,0.0
683,486,4179,-48,41,12,2024-01-29 16:56:01,0.0
696,480,4193,-40,17,8,2024-01-29 16:56:01,0.0
645,512,4177,-43,-1,7,2024-01-29 16:56:01,0.0
698,493,4200,-36,-59,1,2024-01-29 16:56:01,0.0
722,484,4097,-29,-36,9,2024-01-29 16:56:01,0.0
708,498,4184,-39,-18,7,2024-01-29 16:56:01,0.0
700,523,4136,-39,-35,8,2024-01-29 16:56:01,0.0
706,482,4225,-41,-11,8,2024-01-29 16:56:01,0.0
657,491,4128,-46,-18,9,2024-01-29 16:56:01,
685,485,4169,-43,-11,10,2024-01-29 16:56:02,0.0
689,493,4136,-43,-19,8,2024-01-29 16:56:02,0.0
696,497,4147,-34,-27,10,2024-01-29 16:56:02,0.0
668,504,4170,-34,-23,9,2024-01-29 16:56:02,0.0
650,482,4168,-41,-40,6,2024-01-29 16:56:02,0.0
691,496,4142,-35,-48,11,2024-01-29 16:56:02,0.0
662,478,4233,-35,-38,11,2024-01-29 16:56:02,0.0
720,500,4128,-35,-62,9,2024-01-29 16:56:02,0.0
673,512,4166,-37,-62,5,2024-01-29 16:56:02,0.0
730,498,4162,-38,-61,7,2024-01-29 16:56:02,0.0
729,503,4183,-36,-55,11,2024-01-29 16:56:02,0.0
726,496,4133,-35,-74,9,2024-01-29 16:56:02,0.0
740,516,4146,-36,-53,9,2024-01-29 16:56:02,0.0
753,484,4103,-41,-3,15,2024-01-29 16:56:02,0.0
683,514,4159,-58,39,6,2024-01-29 16:56:02,0.0
759,488,4166,-48,-60,6,2024-01-29 16:56:02,0.0
689,506,4177,-38,-52,9,2024-01-29 16:56:02,0.0
734,471,4126,-43,-70,11,2024-01-29 16:56:03,0.0
755,488,4163,-39,-56,9,2024-01-29 16:56:03,0.0
777,521,4114,-37,-61,14,2024-01-29 16:56:03,0.0
772,491,4144,-41,-50,9,2024-01-29 16:56:03,0.0
762,461,4179,-35,-74,4,2024-01-29 16:56:03,0.0
788,485,4154,-41,-70,13,2024-01-29 16:56:03,0.0
771,523,4174,-28,-47,9,2024-01-29 16:56:03,0.0
792,494,4119,-40,-22,7,2024-01-29 16:56:03,0.0
821,480,4171,-24,-1,3,2024-01-29 16:56:03,0.0
808,492,4158,-3,66,-8,2024-01-29 16:56:03,0.0
955,526,4495,46,267,-24,2024-01-29 16:56:03,0.0
532,586,3939,-33,224,-13,2024-01-29 16:56:03,0.0
584,573,4241,19,259,1,2024-01-29 16:56:03,0.0
566,633,4387,-76,209,3,2024-01-29 16:56:03,0.0
565,490,4028,-74,246,14,2024-01-29 16:56:03,0.0
386,567,4317,-70,212,15,2024-01-29 16:56:03,0.0
355,488,4513,-81,240,1,2024-01-29 16:56:03,0.0
-292,296,3515,-82,73,81,2024-01-29 16:56:04,0.0
470,540,3295,-17,-289,91,2024-01-29 16:56:04,0.0
-219,648,4424,-83,-453,50,2024-01-29 16:56:04,0.0
288,512,4748,-92,-401,39,2024-01-29 16:56:04,0.0
293,483,4203,-32,-730,49,2024-01-29 16:56:04,0.0
605,505,4206,-234,-960,7,2024-01-29 16:56:04,0.0
752,439,4729,-174,-1104,18,2024-01-29 16:56:04,0.0
794,312,3956,-28,-1363,112,2024-01-29 16:56:04,0.0
1794,300,3874,124,-1165,98,2024-01-29 16:56:04,0.0
2177,274,3412,140,-1463,-80,2024-01-29 16:56:04,0.0
1913,304,4118,172,-1741,-174,2024-01-29 16:56:04,0.0
2166,587,3697,216,-981,-85,2024-01-29 16:56:04,0.0
3277,503,1639,283,-1377,-53,2024-01-29 16:56:04,0.0
2495,284,3278,282,-1728,-105,2024-01-29 16:56:04,0.0
3331,807,2059,529,-917,-174,2024-01-29 16:56:04,0.0
4159,825,1799,142,-1414,-449,2024-01-29 16:56:04,0.0
3989,789,1816,326,-811,-410,2024-01-29 16:56:04,0.0
4335,1275,1046,399,-953,-391,2024-01-29 16:56:04,0.0
2678,1713,3322,810,-1195,-274,2024-01-29 16:56:05,0.0
3640,1447,1425,735,-763,-304,2024-01-29 16:56:05,0.0
3688,1715,1544,550,-1206,-285,2024-01-29 16:56:05,0.0
4654,2278,947,177,-1335,35,2024-01-29 16:56:05,0.0
3941,2254,1025,223,-602,140,2024-01-29 16:56:07,0.0
5243,2526,16,-105,-265,58,2024-01-29 16:56:07,0.0
4043,2979,29,-277,1052,47,2024-01-29 16:56:07,0.0
4294,1563,986,-773,661,-135,2024-01-29 16:56:07,0.0
3510,1936,1145,-757,926,-69,2024-01-29 16:56:07,0.0
3074,1001,1487,-924,984,-114,2024-01-29 16:56:07,0.0
3316,627,1609,-559,903,71,2024-01-29 16:56:07,0.0
2799,1060,1954,-318,262,135,2024-01-29 16:56:07,0.0
3187,1094,1711,-87,830,-216,2024-01-29 16:56:07,0.0
4416,140,-89,-99,-616,423,2024-01-29 16:56:07,0.0
4058,-322,-94,187,5,58,2024-01-29 16:56:07,0.0
4113,89,-73,420,-179,-43,2024-01-29 16:56:07,0.0
4429,209,-381,248,-374,69,2024-01-29 16:56:07,0.0
4386,2,-432,83,-307,90,2024-01-29 16:56:07,0.0
4622,-40,-400,-24,-194,135,2024-01-29 16:56:07,0.0
4213,-139,-554,-88,-284,102,2024-01-29 16:56:08,0.0
4346,-291,-536,-151,-42,106,2024-01-29 16:56:08,0.0
4091,27,-497,-151,-94,-23,2024-01-29 16:56:08,0.0
3867,-111,-477,-245,26,-105,2024-01-29 16:56:08,0.0
4200,-43,-348,-316,85,-225,2024-01-29 16:56:08,0.0
4516,-42,-473,122,-157,-88,2024-01-29 16:56:08,0.0
4695,-94,-665,281,5,-60,2024-01-29 16:56:08,0.0
4416,228,-374,276,142,-33,2024-01-29 16:56:08,0.0
4256,305,-317,94,131,64,2024-01-29 16:56:08,0.0
4226,-36,-299,16,22,57,2024-01-29 16:56:08,0.0
4268,149,-316,-1,-265,31,2024-01-29 16:56:08,0.0
4181,78,-489,-105,-112,0,2024-01-29 16:56:08,0.0
4462,98,-507,-213,-7,32,2024-01-29 16:56:08,0.0
4327,-85,-405,-211,-72,30,2024-01-29 16:56:08,0.0
4283,-77,-432,-171,-155,14,2024-01-29 16:56:08,0.0
4346,-44,-482,-107,-73,22,2024-01-29 16:56:08,0.0
4277,-73,-427,-103,-89,13,2024-01-29 16:56:08,0.0
4442,-7,-608,-43,-98,10,2024-01-29 16:56:09,0.0
4302,35,-396,5,46,7,2024-01-29 16:56:09,0.0
4396,62,-434,6,20,-18,2024-01-29 16:56:09,0.0
4292,100,-381,-37,-10,-7,2024-01-29 16:56:09,0.0
4307,24,-417,-57,-130,-2,2024-01-29 16:56:09,0.0
4307,64,-500,-58,-81,3,2024-01-29 16:56:09,0.0
4358,103,-477,-56,-32,-7,2024-01-29 16:56:09,0.0
4351,92,-494,-51,-89,-13,2024-01-29 16:56:09,0.0
4328,115,-477,-14,-55,-17,2024-01-29 16:56:09,0.0
4359,93,-550,-31,-87,8,2024-01-29 16:56:09,0.0
4302,84,-606,-94,21,16,2024-01-29 16:56:09,0.0
4242,82,-537,-110,-6,22,2024-01-29 16:56:09,
4298,-23,-558,-49,-54,42,2024-01-29 16:56:09,0.0
4271,107,-671,-52,-57,25,2024-01-29 16:56:09,0.0
4252,51,-630,-60,-42,35,2024-01-29 16:56:09,0.0
4220,37,-591,-46,-52,27,2024-01-29 16:56:09,0.0
4228,91,-561,-75,-46,11,2024-01-29 16:56:09,0.0
4309,50,-544,-96,-111,12,2024-01-29 16:56:09,0.0
4346,91,-607,-151,-104,10,2024-01-29 16:56:10,0.0
4390,-25,-647,-129,-77,48,2024-01-29 16:56:10,0.0
4329,40,-607,-146,-9,45,2024-01-29 16:56:10,0.0
4339,-30,-599,-122,13,50,2024-01-29 16:56:10,0.0
4295,-30,-579,-73,-37,28,2024-01-29 16:56:10,0.0
4292,-31,-596,-41,-10,12,2024-01-29 16:56:10,0.0
4318,10,-614,-30,-13,10,2024-01-29 16:56:10,0.0
4331,-29,-596,0,30,3,2024-01-29 16:56:10,0.0
4285,33,-620,12,46,-2,2024-01-29 16:56:10,0.0
4259,-11,-579,13,28,-8,2024-01-29 16:56:10,0.0
4352,62,-575,17,75,13,2024-01-29 16:56:10,0.0
4323,51,-523,-6,79,5,2024-01-29 16:56:10,0.0
4347,2,-508,-24,91,8,2024-01-29 16:56:10,0.0
4247,-3,-479,-8,65,0,2024-01-29 16:56:10,0.0
4286,-43,-365,15,74,3,2024-01-29 16:56:10,0.0
4370,-30,-340,62,19,5,2024-01-29 16:56:10,0.0
4357,-32,-386,42,13,10,2024-01-29 16:56:10,0.0
4379,-63,-388,78,31,18,2024-01-29 16:56:11,0.0
4310,67,-339,40,95,-13,2024-01-29 16:56:11,0.0
4292,17,-190,66,104,21,2024-01-29 16:56:11,0.0
4380,-11,-223,96,73,1,2024-01-29 16:56:11,0.0
4257,195,-198,82,8,19,2024-01-29 16:56:11,0.0
4319,17,-264,119,-17,39,2024-01-29 16:56:11,0.0
4262,173,-327,71,-68,-6,2024-01-29 16:56:11,0.0
4333,175,-292,-33,-47,17,2024-01-29 16:56:11,0.0
4351,48,-278,-93,-75,10,2024-01-29 16:56:11,0.0
4392,-73,-280,-68,-93,23,2024-01-29 16:56:11,0.0
4243,-79,-291,21,-178,11,2024-01-29 16:56:11,0.0
4298,-8,-326,48,-153,-3,2024-01-29 16:56:11,0.0
4417,61,-341,-11,-92,16,2024-01-29 16:56:11,0.0
4387,-30,-396,-48,-48,13,2024-01-29 16:56:11,0.0
4327,-35,-437,-71,-62,5,2024-01-29 16:56:11,0.0
4340,-109,-383,1,-45,22,2024-01-29 16:56:11,0.0
4325,119,-498,-42,-27,8,2024-01-29 16:56:11,0.0
4311,-11,-484,-105,-50,3,2024-01-29 16:56:11,0.0
4227,13,-485,-119,-58,-7,2024-01-29 16:56:12,0.0
4274,-27,-441,-132,-91,-4,2024-01-29 16:56:12,0.0
4301,-36,-426,-110,-79,4,2024-01-29 16:56:12,0.0
4341,-31,-480,-87,-68,-14,2024-01-29 16:56:12,0.0
4309,-16,-413,-86,-105,-3,2024-01-29 16:56:12,0.0
4353,-22,-503,-61,-58,-8,2024-01-29 16:56:12,0.0
4370,-38,-443,-26,-39,1,2024-01-29 16:56:12,0.0
4362,26,-523,-37,19,-7,2024-01-29 16:56:12,0.0
4288,63,-476,-47,-21,-13,2024-01-29 16:56:12,0.0
4346,107,-465,-103,24,-15,2024-01-29 16:56:12,0.0
4325,38,-421,-105,-19,2,2024-01-29 16:56:12,0.0
4265,101,-513,-134,-20,-22,2024-01-29 16:56:12,0.0
4347,81,-462,-97,-30,1,2024-01-29 16:56:12,0.0
4301,94,-498,-83,-31,2,2024-01-29 16:56:12,0.0
4379,98,-457,-65,-17,-4,2024-01-29 16:56:12,0.0
4297,133,-456,-34,-8,5,2024-01-29 16:56:12,0.0
4253,-2,-456,53,-41,-3,2024-01-29 16:56:12,0.0
4241,155,-513,55,-39,-10,2024-01-29 16:56:13,0.0
4365,108,-455,7,-19,1,2024-01-29 16:56:13,0.0
4350,116,-494,-32,26,11,2024-01-29 16:56:13,0.0
4339,110,-471,-43,17,9,2024-01-29 16:56:13,0.0
4265,109,-433,-81,25,7,2024-01-29 16:56:13,0.0
4354,29,-445,-61,15,23,2024-01-29 16:56:13,0.0
4343,37,-485,-55,-7,26,2024-01-29 16:56:13,0.0
4370,16,-423,-50,0,27,2024-01-29 16:56:13,0.0
4322,47,-372,-28,-13,20,2024-01-29 16:56:13,0.0
4328,55,-410,-44,3,25,2024-01-29 16:56:13,0.0
4330,22,-402,-43,-3,15,2024-01-29 16:56:13,0.0
4342,40,-387,-27,4,22,2024-01-29 16:56:13,0.0
4304,10,-355,-37,-4,15,2024-01-29 16:56:13,0.0
4302,54,-391,-40,19,9,2024-01-29 16:56:13,0.0
4319,51,-326,-35,1,17,2024-01-29 16:56:13,0.0
4368,6,-379,-30,12,12,2024-01-29 16:56:13,0.0
4351,70,-293,-36,-18,8,2024-01-29 16:56:13,0.0
4340,95,-341,-49,-4,7,2024-01-29 16:56:13,0.0
4301,86,-377,-46,-21,4,2024-01-29 16:56:14,0.0
4334,3,-332,-44,3,7,2024-01-29 16:56:14,0.0
4320,58,-332,-46,-12,12,2024-01-29 16:56:14,0.0
4358,22,-345,-57,-6,16,2024-01-29 16:56:14,0.0
4316,56,-332,-52,-13,15,2024-01-29 16:56:14,0.0
4338,63,-310,-55,-10,9,2024-01-29 16:56:14,0.0
4326,52,-290,-52,-5,14,2024-01-29 16:56:14,0.0
4325,67,-285,-53,-14,11,2024-01-29 16:56:14,0.0
4355,27,-277,-54,-29,8,2024-01-29 16:56:14,0.0
4339,70,-273,-51,-34,3,2024-01-29 16:56:14,0.0
4300,47,-277,-58,-57,-2,2024-01-29 16:56:14,0.0
4339,53,-303,-75,-79,5,2024-01-29 16:56:14,0.0
4317,105,-297,-100,-43,-4,2024-01-29 16:56:14,0.0
4327,24,-311,-100,-50,7,2024-01-29 16:56:14,0.0
4336,-6,-331,-83,-63,-8,2024-01-29 16:56:14,0.0
4314,81,-305,-88,-85,-5,2024-01-29 16:56:14,0.0
4323,52,-376,-76,-31,5,2024-01-29 16:56:14,0.0
4356,55,-344,-67,-55,0,2024-01-29 16:56:15,0.0
4295,62,-334,-63,-56,8,2024-01-29 16:56:15,0.0
4320,63,-318,-48,-82,12,2024-01-29 16:56:15,0.0
4292,79,-400,-34,-16,4,2024-01-29 16:56:15,0.0
4331,69,-378,-22,-54,7,2024-01-29 16:56:15,0.0
4297,72,-369,10,-56,9,2024-01-29 16:56:15,0.0
4337,91,-324,25,-88,9,2024-01-29 16:56:15,
4327,84,-364,23,-25,8,2024-01-29 16:56:15,0.0
4311,92,-357,32,-43,10,2024-01-29 16:56:15,0.0
4340,41,-421,21,-36,11,2024-01-29 16:56:15,0.0
4319,60,-410,5,-18,10,2024-01-29 16:56:15,0.0
4297,33,-367,-7,-49,16,2024-01-29 16:56:15,0.0
4320,74,-393,-7,-12,13,2024-01-29 16:56:15,0.0
4376,5,-394,-5,-63,18,2024-01-29 16:56:15,0.0
4334,38,-394,-5,-31,9,2024-01-29 16:56:15,0.0
4294,-29,-332,35,-76,21,2024-01-29 16:56:15,0.0
4341,15,-442,118,-38,-7,2024-01-29 16:56:15,0.0
4339,165,-377,51,-43,23,2024-01-29 16:56:15,0.0
4389,35,-364,45,-20,9,2024-01-29 16:56:16,0.0
4354,111,-454,-9,-27,5,2024-01-29 16:56:16,0.0
4293,67,-373,-42,-21,22,2024-01-29 16:56:16,0.0
4312,33,-450,-78,-10,13,2024-01-29 16:56:16,0.0
4343,13,-408,-80,-8,18,2024-01-29 16:56:16,0.0
4318,31,-382,-79,4,25,2024-01-29 16:56:16,0.0
4335,26,-437,-87,-11,21,2024-01-29 16:56:16,0.0
4310,36,-370,-108,31,25,2024-01-29 16:56:16,0.0
4337,-8,-435,-125,-6,21,2024-01-29 16:56:16,0.0
4322,-7,-377,-105,17,20,2024-01-29 16:56:16,0.0
4329,-25,-377,-67,4,10,2024-01-29 16:56:16,0.0
4419,15,-448,-52,14,25,2024-01-29 16:56:16,0.0
4429,-20,-440,-65,114,24,2024-01-29 16:56:16,0.0
4265,-34,-351,-84,102,26,2024-01-29 16:56:16,0.0
4307,-3,-368,-87,99,36,2024-01-29 16:56:16,0.0
4464,-31,-500,-90,80,33,2024-01-29 16:56:16,0.0
4590,-44,-452,-66,313,25,2024-01-29 16:56:16,0.0
4313,46,-223,-78,302,20,2024-01-29 16:56:17,0.0
4322,37,-349,-93,415,33,2024-01-29 16:56:17,0.0
4239,-53,-310,-63,528,29,2024-01-29 16:56:17,0.0
4051,25,-210,-56,696,23,2024-01-29 16:56:17,0.0
3911,-142,-251,-37,767,-14,2024-01-29 16:56:17,0.0
3763,65,-234,-46,973,21,2024-01-29 16:56:17,0.0
3485,67,-521,-73,684,29,2024-01-29 16:56:17,0.0
2536,33,-282,-55,1223,-29,2024-01-29 16:56:17,0.0
2444,-234,149,-166,1114,53,2024-01-29 16:56:17,0.0
1423,257,-311,-116,653,-182,2024-01-29 16:56:17,0.0
2298,-291,1109,-372,1595,-13,2024-01-29 16:56:17,0.0
1761,-54,0,-512,23,247,2024-01-29 16:56:17,0.0
3503,-903,1268,-598,1347,179,2024-01-29 16:56:17,0.0
3201,-1485,-5,330,1301,83,2024-01-29 16:56:17,0.0
-1326,622,768,453,-271,-597,2024-01-29 16:56:17,0.0
13931,1978,16703,696,2870,798,2024-01-29 16:56:17,0.0
4023,-729,9292,-339,5538,-1018,2024-01-29 16:56:17,0.0
-1769,458,3966,577,3740,427,2024-01-29 16:56:17,0.0
-2143,1102,2839,-438,-185,-4,2024-01-29 16:56:18,0.0
-679,-959,3056,133,-234,-55,2024-01-29 16:56:18,0.0
-2419,1150,4011,-171,-452,32,2024-01-29 16:56:18,0.0
448,-356,3989,84,-282,9,2024-01-29 16:56:18,0.0
-256,514,2997,14,-546,186,2024-01-29 16:56:18,0.0
1078,313,5401,-25,-367,-21,2024-01-29 16:56:18,0.0
1112,357,4560,119,-295,-75,2024-01-29 16:56:18,0.0
784,223,3672,6,-421,87,2024-01-29 16:56:18,0.0
757,378,3430,67,-739,56,2024-01-29 16:56:18,0.0
3216,392,4941,123,-170,12,2024-01-29 16:56:18,0.0
692,1148,4346,-8,979,-120,2024-01-29 16:56:18,0.0
355,192,3847,14,-494,53,2024-01-29 16:56:18,0.0
356,447,3994,-40,-180,79,2024-01-29 16:56:18,0.0
1289,202,4217,-44,-129,46,2024-01-29 16:56:18,0.0
1089,692,4529,-75,138,-54,2024-01-29 16:56:18,0.0
770,243,3703,-58,-6,34,2024-01-29 16:56:18,0.0
847,368,4255,-17,-107,19,2024-01-29 16:56:18,0.0
1006,471,3990,-23,-8,23,2024-01-29 16:56:19,0.0
851,414,4299,-50,-42,9,2024-01-29 16:56:19,0.0
853,357,4095,-63,28,21,2024-01-29 16:56:19,0.0
888,431,4026,-31,-102,-3,2024-01-29 16:56:19,0.0
929,435,4212,-45,9,17,2024-01-29 16:56:19,0.0
887,365,4058,-59,-17,21,2024-01-29 16:56:19,0.0
876,393,4189,-36,-25,15,2024-01-29 16:56:19,0.0
933,460,4072,-50,-36,17,2024-01-29 16:56:19,0.0
940,357,4167,-46,-13,10,2024-01-29 16:56:19,0.0
869,409,4091,-57,-24,10,2024-01-29 16:56:19,0.0
893,394,4131,-42,13,11,2024-01-29 16:56:19,0.0
896,370,4139,-42,7,7,2024-01-29 16:56:19,0.0
856,361,4122,-48,3,7,2024-01-29 16:56:19,0.0
851,373,4075,-58,33,14,2024-01-29 16:56:19,0.0
868,378,4242,-74,23,21,2024-01-29 16:56:19,0.0
834,348,4074,-37,19,15,2024-01-29 16:56:19,0.0
805,392,4172,-32,51,0,2024-01-29 16:56:19,0.0
823,399,4129,-37,-15,14,2024-01-29 16:56:19,0.0
778,413,4194,-26,4,16,2024-01-29 16:56:20,0.0
784,403,4174,-45,-4,13,2024-01-29 16:56:20,0.0
779,384,4179,-38,-20,10,2024-01-29 16:56:20,0.0
801,387,4158,-46,-34,4,2024-01-29 16:56:20,0.0
762,391,4136,-36,-17,8,2024-01-29 16:56:20,0.0
761,380,4170,-34,-4,12,2024-01-29 16:56:20,0.0
814,377,4155,-44,-32,9,2024-01-29 16:56:20,0.0
775,384,4159,-34,-29,7,2024-01-29 16:56:20,0.0
768,390,4197,-41,-24,11,2024-01-29 16:56:20,0.0
764,374,4137,-35,-41,5,2024-01-29 16:56:20,0.0
818,394,4229,-45,-31,8,2024-01-29 16:56:20,0.0
735,374,4184,-37,-51,7,2024-01-29 16:56:20,0.0
798,401,4204,-40,-30,5,2024-01-29 16:56:20,0.0
799,396,4177,-45,-42,13,2024-01-29 16:56:20,0.0
804,375,4162,-37,-29,10,2024-01-29 16:56:20,0.0
814,387,4114,-43,-21,12,2024-01-29 16:56:20,0.0
791,386,4190,-36,-30,9,2024-01-29 16:56:20,0.0
803,386,4133,-44,-53,6,2024-01-29 16:56:21,0.0
789,409,4229,-34,-32,10,2024-01-29 16:56:21,
791,382,4101,-39,-13,10,2024-01-29 16:56:21,0.0
781,372,4228,-39,-28,7,2024-01-29 16:56:21,0.0
829,388,4123,-39,-26,8,2024-01-29 16:56:21,0.0
781,385,4183,-37,-26,11,2024-01-29 16:56:21,0.0
796,404,4095,-44,-13,11,2024-01-29 16:56:21,0.0
863,378,4179,-47,17,4,2024-01-29 16:56:21,0.0
755,367,4123,-37,-19,12,2024-01-29 16:56:21,0.0
803,391,4210,-44,-6,11,2024-01-29 16:56:21,0.0
779,369,4132,-38,-14,10,2024-01-29 16:56:21,0.0
783,383,4193,-40,-15,16,2024-01-29 16:56:21,0.0
772,372,4150,-45,-5,13,2024-01-29 16:56:21,0.0
757,389,4175,-44,7,8,2024-01-29 16:56:21,0.0
764,380,4114,-37,-16,14,2024-01-29 16:56:21,0.0
740,379,4151,-44,22,15,2024-01-29 16:56:21,0.0
735,376,4127,-46,30,19,2024-01-29 16:56:21,0.0
719,366,4221,-43,-8,12,2024-01-29 16:56:21,0.0
722,377,4114,-51,44,9,2024-01-29 16:56:22,0.0
674,399,4238,-57,14,9,2024-01-29 16:56:22,0.0
662,352,4157,-48,22,10,2024-01-29 16:56:22,0.0
748,359,4192,-48,7,8,2024-01-29 16:56:22,0.0
657,355,4177,-33,-33,9,2024-01-29 16:56:22,0.0
692,404,4289,-22,-71,16,2024-01-29 16:56:22,0.0
722,439,4169,-14,-48,13,2024-01-29 16:56:22,0.0
679,330,4115,-41,-50,8,2024-01-29 16:56:22,0.0
731,352,4135,-37,-25,7,2024-01-29 16:56:22,0.0
693,385,4219,-34,-65,5,2024-01-29 16:56:22,0.0
726,423,4164,-33,-66,6,2024-01-29 16:56:22,0.0
737,385,4148,-42,-46,7,2024-01-29 16:56:22,0.0
735,379,4182,-41,-47,11,2024-01-29 16:56:22,0.0
731,348,4181,-38,-15,7,2024-01-29 16:56:22,0.0
741,386,4199,-35,-41,10,2024-01-29 16:56:22,0.0
738,399,4140,-40,-24,11,2024-01-29 16:56:22,0.0
724,379,4175,-44,-44,14,2024-01-29 16:56:22,0.0
748,371,4161,-36,-55,13,2024-01-29 16:56:23,0.0
787,372,4188,-48,-33,10,2024-01-29 16:56:23,0.0
709,372,4109,-39,-68,6,2024-01-29 16:56:23,0.0
725,353,4196,-47,-32,13,2024-01-29 16:56:23,0.0
758,397,4187,-35,-68,8,2024-01-29 16:56:23,0.0
761,349,4209,-30,1,15,2024-01-29 16:56:23,0.0
781,369,4093,-33,-22,9,2024-01-29 16:56:23,0.0
721,368,4155,-36,-30,5,2024-01-29 16:56:23,0.0
748,382,4169,-41,-59,8,2024-01-29 16:56:23,0.0
768,408,4200,-42,-52,10,2024-01-29 16:56:23,0.0
759,407,4108,-38,-26,7,2024-01-29 16:56:23,0.0
753,366,4146,-42,-21,6,2024-01-29 16:56:23,0.0
751,373,4175,-36,-24,7,2024-01-29 16:56:23,0.0
750,385,4186,-47,-22,13,2024-01-29 16:56:23,0.0
747,369,4177,-35,-30,9,2024-01-29 16:56:23,0.0
801,373,4155,-55,-2,7,2024-01-29 16:56:23,0.0
732,362,4109,-39,-28,4,2024-01-29 16:56:23,0.0
757,379,4167,-49,9,14,2024-01-29 16:56:23,0.0
720,374,4171,-49,-11,10,2024-01-29 16:56:24,0.0
718,405,4193,-36,-8,6,2024-01-29 16:56:24,0.0
735,387,4191,-43,-32,11,2024-01-29 16:56:24,0.0
748,344,4208,-46,5,6,2024-01-29 16:56:24,0.0
708,391,4179,-48,-49,7,2024-01-29 16:56:24,0.0
764,350,4167,-33,-8,10,2024-01-29 16:56:24,0.0
733,381,4182,-44,-5,11,2024-01-29 16:56:24,0.0
735,365,4179,-40,-16,9,2024-01-29 16:56:24,0.0
699,365,4171,-40,7,11,2024-01-29 16:56:24,0.0
722,354,4139,-49,34,12,2024-01-29 16:56:24,0.0
685,387,4209,-53,-6,15,2024-01-29 16:56:24,0.0
737,353,4181,-49,31,1,2024-01-29 16:56:24,0.0
641,349,4205,-54,-17,2,2024-01-29 16:56:24,0.0
655,354,4204,-33,12,5,2024-01-29 16:56:24,0.0
644,347,4147,-35,13,6,2024-01-29 16:56:24,0.0
619,336,4222,-19,25,-5,2024-01-29 16:56:24,0.0
665,403,4072,-51,6,2,2024-01-29 16:56:24,0.0
589,350,4192,-33,-50,4,2024-01-29 16:56:25,0.0
634,361,4142,-46,-8,11,2024-01-29 16:56:25,0.0
604,368,4158,-32,-21,13,2024-01-29 16:56:25,0.0
657,361,4144,-46,-19,11,2024-01-29 16:56:25,0.0
622,346,4203,-32,-19,9,2024-01-29 16:56:25,0.0
612,366,4170,-41,-17,11,2024-01-29 16:56:25,0.0
599,358,4209,-39,-27,11,2024-01-29 16:56:25,0.0
621,380,4181,-41,-30,12,2024-01-29 16:56:25,0.0
611,379,4179,-45,-24,10,2024-01-29 16:56:25,0.0
666,342,4182,-46,-1,8,2024-01-29 16:56:25,0.0
600,363,4165,-36,-28,9,2024-01-29 16:56:25,0.0
629,380,4177,-44,-13,12,2024-01-29 16:56:25,0.0
611,380,4180,-36,-21,11,2024-01-29 16:56:25,0.0
598,365,4194,-41,-16,10,2024-01-29 16:56:25,0.0
622,366,4168,-39,-14,10,2024-01-29 16:56:25,0.0
589,342,4195,-43,-40,10,2024-01-29 16:56:25,0.0
602,352,4209,-34,-57,8,2024-01-29 16:56:25,0.0
605,369,4251,-41,-53,8,2024-01-29 16:56:25,0.0
617,331,4136,-31,-49,6,2024-01-29 16:56:26,0.0
654,364,4177,-33,-66,5,2024-01-29 16:56:26,0.0
620,372,4172,-36,-55,8,2024-01-29 16:56:26,0.0
649,341,4228,-34,-47,6,2024-01-29 16:56:26,0.0
650,377,4161,-34,-40,5,2024-01-29 16:56:26,0.0
640,357,4166,-40,-43,7,2024-01-29 16:56:26,0.0
653,368,4201,-29,-44,11,2024-01-29 16:56:26,0.0
697,380,4179,-52,-31,7,2024-01-29 16:56:26,0.0
592,337,4169,-31,-58,8,2024-01-29 16:56:26,0.0
656,372,4155,-46,-29,10,2024-01-29 16:56:26,0.0
679,359,4205,-42,-51,8,2024-01-29 16:56:26,0.0
677,371,4148,-38,-35,10,2024-01-29 16:56:26,0.0
684,371,4158,-41,-60,10,2024-01-29 16:56:26,0.0
681,367,4202,-37,-28,5,2024-01-29 16:56:26,
668,380,4164,-45,-53,5,2024-01-29 16:56:26,0.0
700,385,4145,-33,-28,11,2024-01-29 16:56:26,0.0
695,350,4153,-38,-17,10,2024-01-29 16:56:26,0.0
691,364,4171,-42,-14,6,2024-01-29 16:56:27,0.0
670,370,4139,-38,-8,10,2024-01-29 16:56:27,0.0
651,394,4203,-44,-30,9,2024-01-29 16:56:27,0.0
664,343,4142,-39,-9,10,2024-01-29 16:56:27,0.0
694,388,4177,-49,-5,8,2024-01-29 16:56:27,0.0
651,363,4158,-34,-25,11,2024-01-29 16:56:27,0.0
631,380,4174,-47,9,14,2024-01-29 16:56:27,0.0
670,370,4209,-43,-16,7,2024-01-29 16:56:27,0.0
657,368,4152,-36,13,12,2024-01-29 16:56:27,0.0
641,344,4209,-44,-32,15,2024-01-29 16:56:27,0.0
624,352,4184,-41,-3,8,2024-01-29 16:56:27,0.0
620,363,4180,-45,-29,10,2024-01-29 16:56:27,0.0
643,365,4191,-41,-3,13,2024-01-29 16:56:27,0.0
635,357,4185,-44,0,11,2024-01-29 16:56:27,0.0
612,358,4144,-43,-12,13,2024-01-29 16:56:27,0.0
593,371,4194,-43,-1,12,2024-01-29 16:56:27,0.0
600,368,4170,-48,-12,10,2024-01-29 16:56:27,0.0
610,372,4185,-37,-9,11,2024-01-29 16:56:27,0.0
617,378,4196,-52,-11,9,2024-01-29 16:56:28,0.0
565,355,4121,-49,-2,8,2024-01-29 16:56:28,0.0
593,371,4224,-42,-7,9,2024-01-29 16:56:28,0.0
589,358,4217,-45,-5,7,2024-01-29 16:56:28,0.0
570,351,4172,-34,-22,12,2024-01-29 16:56:28,0.0
563,357,4192,-41,-30,9,2024-01-29 16:56:28,0.0
589,347,4173,-42,-40,12,2024-01-29 16:56:28,0.0
559,382,4178,-41,-52,5,2024-01-29 16:56:28,0.0
587,344,4151,-31,-39,8,2024-01-29 16:56:28,0.0
581,346,4212,-36,-30,12,2024-01-29 16:56:28,0.0
581,367,4164,-37,-47,7,2024-01-29 16:56:28,0.0
572,367,4200,-32,-45,6,2024-01-29 16:56:28,0.0
629,358,4143,-37,-50,7,2024-01-29 16:56:28,0.0
605,339,4179,-33,-46,7,2024-01-29 16:56:28,0.0
600,355,4161,-40,-55,5,2024-01-29 16:56:28,0.0
581,370,4194,-29,-53,6,2024-01-29 16:56:28,0.0
675,371,4205,-43,-33,6,2024-01-29 16:56:28,0.0
633,350,4172,-30,-70,6,2024-01-29 16:56:29,0.0
610,344,4147,-35,-46,9,2024-01-29 16:56:29,0.0
663,390,4206,-32,-53,9,2024-01-29 16:56:29,0.0
663,361,4185,-37,-46,6,2024-01-29 16:56:29,0.0
671,369,4188,-39,-24,7,2024-01-29 16:56:29,0.0
656,374,4139,-38,-54,4,2024-01-29 16:56:29,0.0
654,376,4218,-38,-49,8,2024-01-29 16:56:29,0.0
672,350,4177,-41,-52,9,2024-01-29 16:56:29,0.0
641,355,4143,-39,-34,8,2024-01-29 16:56:29,0.0
671,369,4153,-35,-41,6,2024-01-29 16:56:29,0.0
695,382,4165,-43,0,7,2024-01-29 16:56:29,0.0
652,387,4144,-30,60,2,2024-01-29 16:56:29,0.0
786,369,4219,-26,141,-3,2024-01-29 16:56:29,0.0
498,364,4025,-15,455,-20,2024-01-29 16:56:29,0.0
514,417,4467,-54,277,-7,2024-01-29 16:56:29,0.0
334,360,3967,-59,338,-5,2024-01-29 16:56:29,0.0
449,426,4170,25,369,3,2024-01-29 16:56:29,0.0
134,558,4598,-49,388,-6,2024-01-29 16:56:29,0.0
-339,206,4410,-73,208,49,2024-01-29 16:56:30,0.0
-225,333,4066,-48,-385,34,2024-01-29 16:56:30,0.0
56,295,4114,-123,-705,74,2024-01-29 16:56:30,0.0
238,635,4528,-115,-821,35,2024-01-29 16:56:30,0.0
330,321,4217,-200,-1135,105,2024-01-29 16:56:30,0.0
720,135,3980,-142,-1146,106,2024-01-29 16:56:30,0.0
823,52,3678,72,-1421,196,2024-01-29 16:56:30,0.0
1202,244,4903,246,-1089,-54,2024-01-29 16:56:30,0.0
2819,378,3221,344,-949,1,2024-01-29 16:56:30,0.0
2844,546,2371,303,-1448,-64,2024-01-29 16:56:30,0.0
2265,334,3905,433,-1419,-144,2024-01-29 16:56:30,0.0
2749,154,3931,261,-840,-56,2024-01-29 16:56:30,0.0
3708,424,2575,159,-1011,-186,2024-01-29 16:56:30,0.0
3106,883,2629,163,-1296,-379,2024-01-29 16:56:30,0.0
2924,1032,2941,445,-1310,-428,2024-01-29 16:56:30,0.0
2987,1107,2916,514,-1185,-274,2024-01-29 16:56:30,0.0
3552,1219,1981,478,-888,-270,2024-01-29 16:56:30,0.0
3142,1818,3403,637,-547,-106,2024-01-29 16:56:31,0.0
4004,1767,1929,705,-338,-78,2024-01-29 16:56:33,0.0
4165,2651,2052,298,-762,60,2024-01-29 16:56:33,0.0
4412,1935,2329,131,33,-323,2024-01-29 16:56:33,0.0
4203,2929,1907,-123,214,-740,2024-01-29 16:56:33,0.0
3198,2277,2685,-507,768,-593,2024-01-29 16:56:33,0.0
2876,1590,1963,-472,671,-342,2024-01-29 16:56:33,0.0
2482,855,1822,-546,743,-589,2024-01-29 16:56:33,0.0
1917,1197,1115,-90,892,-542,2024-01-29 16:56:33,0.0
2776,1265,1632,683,178,-429,2024-01-29 16:56:33,0.0
4046,-574,-286,150,296,117,2024-01-29 16:56:33,0.0
3831,-788,-55,399,141,-54,2024-01-29 16:56:33,0.0
3923,331,-459,330,-322,-104,2024-01-29 16:56:33,0.0
4859,-74,-497,29,-10,82,2024-01-29 16:56:33,0.0
4481,-266,-274,32,282,34,2024-01-29 16:56:33,0.0
4186,-14,-203,-92,-98,-13,2024-01-29 16:56:33,0.0
4339,-111,-335,-190,-163,-17,2024-01-29 16:56:33,0.0
4250,-270,-449,-68,-189,-11,2024-01-29 16:56:33,0.0
4416,124,-583,-126,24,-29,2024-01-29 16:56:33,0.0
4283,-28,-450,-202,-62,31,2024-01-29 16:56:33,0.0
4225,-82,-527,-158,-30,-14,2024-01-29 16:56:34,0.0
4237,-103,-459,-35,-118,-1,2024-01-29 16:56:34,0.0
4358,2,-466,31,24,-29,2024-01-29 16:56:34,0.0
4411,47,-422,14,41,-29,2024-01-29 16:56:34,0.0
4410,101,-419,-20,153,8,2024-01-29 16:56:34,0.0
4348,92,-421,-86,41,8,2024-01-29 16:56:34,0.0
4265,86,-420,-139,-91,34,2024-01-29 16:56:34,
4231,25,-282,-77,-122,26,2024-01-29 16:56:34,0.0
4339,-8,-372,-4,-115,30,2024-01-29 16:56:34,0.0
4355,-34,-315,23,-80,7,2024-01-29 16:56:34,0.0
4316,10,-386,41,-39,7,2024-01-29 16:56:34,0.0
4297,-3,-245,19,16,17,2024-01-29 16:56:34,0.0
4270,-126,-287,62,-82,31,2024-01-29 16:56:34,0.0
4494,13,-441,71,-50,-32,2024-01-29 16:56:34,0.0
4308,28,-472,38,-27,-11,2024-01-29 16:56:34,0.0
4289,46,-437,-92,86,-19,2024-01-29 16:56:34,0.0
4277,-14,-406,-144,32,-10,2024-01-29 16:56:34,0.0
4298,-2,-443,-163,18,-6,2024-01-29 16:56:35,0.0
4367,-15,-347,-109,46,-2,2024-01-29 16:56:35,0.0
4332,-120,-362,-18,41,32,2024-01-29 16:56:35,0.0
4298,77,-315,30,-17,-35,2024-01-29 16:56:35,0.0
4386,198,-397,-34,65,14,2024-01-29 16:56:35,0.0
4328,103,-361,-120,28,0,2024-01-29 16:56:35,0.0
4356,14,-314,-117,50,13,2024-01-29 16:56:35,0.0
4346,36,-306,-82,96,-2,2024-01-29 16:56:35,0.0
4281,24,-258,-32,9,5,2024-01-29 16:56:35,0.0
4340,-30,-280,32,-12,19,2024-01-29 16:56:35,0.0
4363,122,-264,32,7,18,2024-01-29 16:56:35,0.0
4378,43,-265,26,-16,27,2024-01-29 16:56:35,0.0
4311,33,-235,2,-75,22,2024-01-29 16:56:35,0.0
4346,54,-238,-21,-61,24,2024-01-29 16:56:35,0.0
4327,31,-310,-65,-14,34,2024-01-29 16:56:35,0.0
4372,39,-166,-94,-14,23,2024-01-29 16:56:35,0.0
4313,-50,-237,-76,-66,37,2024-01-29 16:56:35,0.0
4369,27,-208,-71,4,18,2024-01-29 16:56:35,0.0
4322,-76,-166,-51,7,34,2024-01-29 16:56:36,0.0
4361,36,-166,-17,6,26,2024-01-29 16:56:36,0.0
4415,-21,-94,12,23,25,2024-01-29 16:56:36,0.0
4380,-34,-178,6,2,6,2024-01-29 16:56:36,0.0
4325,51,-221,-35,36,20,2024-01-29 16:56:36,0.0
4287,39,-201,-91,79,7,2024-01-29 16:56:36,0.0
4352,-51,-49,-83,25,29,2024-01-29 16:56:36,0.0
4387,1,-213,-82,8,-1,2024-01-29 16:56:36,0.0
4325,-7,-120,-97,-43,14,2024-01-29 16:56:36,0.0
4299,-86,-111,-39,50,-3,2024-01-29 16:56:36,0.0
4281,9,-165,-18,-115,4,2024-01-29 16:56:36,0.0
4413,-1,-171,-74,-49,-24,2024-01-29 16:56:36,0.0
4330,-87,-145,-66,-98,-21,2024-01-29 16:56:36,0.0
4351,-56,-213,-46,-110,-23,2024-01-29 16:56:36,0.0
4372,60,-139,-30,-126,-24,2024-01-29 16:56:36,0.0
4300,22,-269,-61,-137,-5,2024-01-29 16:56:36,0.0
4418,19,-276,-48,-146,-21,2024-01-29 16:56:36,0.0
4227,54,-343,-89,-145,1,2024-01-29 16:56:37,0.0
4345,37,-385,-49,-143,5,2024-01-29 16:56:37,0.0
4331,-22,-369,-75,-55,13,2024-01-29 16:56:37,0.0
4290,43,-318,-20,-137,15,2024-01-29 16:56:37,0.0
4459,-49,-480,-35,-28,17,2024-01-29 16:56:37,0.0
4307,43,-365,-13,-31,19,2024-01-29 16:56:37,0.0
4370,45,-412,-4,-36,28,2024-01-29 16:56:37,0.0
4297,70,-304,-13,-29,16,2024-01-29 16:56:37,0.0
4420,35,-364,-6,-80,20,2024-01-29 16:56:37,0.0
4374,-6,-340,-5,-1,8,2024-01-29 16:56:37,0.0
4311,96,-371,-24,-33,10,2024-01-29 16:56:37,0.0
4357,29,-347,-12,1,14,2024-01-29 16:56:37,0.0
4355,27,-339,-36,-39,9,2024-01-29 16:56:37,0.0
4339,3,-338,-29,-6,3,2024-01-29 16:56:37,0.0
4326,11,-342,-22,-32,7,2024-01-29 16:56:37,0.0
4369,17,-333,-33,17,1,2024-01-29 16:56:37,0.0
4373,-3,-361,-44,-7,8,2024-01-29 16:56:37,0.0
4273,13,-342,-50,6,-3,2024-01-29 16:56:37,0.0
4322,32,-371,-63,-29,6,2024-01-29 16:56:38,0.0
4294,2,-329,-85,-29,-1,2024-01-29 16:56:38,0.0
4388,-30,-418,-56,-22,10,2024-01-29 16:56:38,0.0
4346,95,-333,-60,-11,16,2024-01-29 16:56:38,0.0
4344,62,-395,-80,-10,11,2024-01-29 16:56:38,0.0
4325,13,-380,-81,0,4,2024-01-29 16:56:38,0.0
4371,23,-358,-84,-15,10,2024-01-29 16:56:38,0.0
4348,16,-341,-72,1,2,2024-01-29 16:56:38,0.0
4325,11,-376,-74,-8,4,2024-01-29 16:56:38,0.0
4280,29,-347,-61,-6,9,2024-01-29 16:56:38,0.0
4371,29,-350,-57,-14,10,2024-01-29 16:56:38,0.0
4348,33,-283,-57,-3,1,2024-01-29 16:56:38,0.0
4327,28,-352,-62,-6,4,2024-01-29 16:56:38,0.0
4336,11,-358,-45,-10,5,2024-01-29 16:56:38,0.0
4322,24,-307,-28,7,8,2024-01-29 16:56:38,0.0
4357,35,-282,-31,-1,12,2024-01-29 16:56:38,0.0
4311,39,-275,-35,-6,8,2024-01-29 16:56:38,0.0
4349,45,-280,-33,-22,9,2024-01-29 16:56:39,0.0
4320,-33,-253,-27,-20,6,2024-01-29 16:56:39,0.0
4334,45,-267,-25,-34,5,2024-01-29 16:56:39,0.0
4348,51,-310,-26,-21,4,2024-01-29 16:56:39,0.0
4330,48,-235,-39,-51,5,2024-01-29 16:56:39,0.0
4309,32,-310,-51,-45,7,2024-01-29 16:56:39,0.0
4334,46,-294,-38,-55,1,2024-01-29 16:56:39,0.0
4357,80,-304,-43,-56,-6,2024-01-29 16:56:39,0.0
4330,14,-279,-48,-96,1,2024-01-29 16:56:39,0.0
4308,48,-289,-32,-74,9,2024-01-29 16:56:39,0.0
4381,32,-378,-44,-38,0,2024-01-29 16:56:39,0.0
4283,52,-275,-45,-76,10,2024-01-29 16:56:39,0.0
4328,13,-380,-46,-94,5,2024-01-29 16:56:39,0.0
4357,70,-388,-42,-95,18,2024-01-29 16:56:39,0.0
4356,62,-409,-31,-40,-2,2024-01-29 16:56:39,0.0
4307,84,-447,-41,-69,10,2024-01-29 16:56:39,0.0
4288,48,-397,-45,-38,6,2024-01-29 16:56:39,0.0
4335,43,-435,-39,-61,7,2024-01-29 16:56:39,0.0
4349,38,-445,-33,-58,4,2024-01-29 16:56:40,0.0
4305,48,-441,-37,-32,7,2024-01-29 16:56:40,
4334,41,-430,-42,-34,12,2024-01-29 16:56:40,0.0
4330,35,-442,-37,-29,15,2024-01-29 16:56:40,0.0
4313,54,-443,-40,-20,15,2024-01-29 16:56:40,0.0
4319,78,-432,-51,-41,18,2024-01-29 16:56:40,0.0
4306,25,-453,-59,-56,17,2024-01-29 16:56:40,0.0
4298,38,-468,-51,-34,16,2024-01-29 16:56:40,0.0
4330,51,-432,-38,-10,41,2024-01-29 16:56:40,0.0
4317,-29,-425,-19,-6,27,2024-01-29 16:56:40,0.0
4299,38,-440,-10,-39,28,2024-01-29 16:56:40,0.0
4342,46,-437,-28,-13,25,2024-01-29 16:56:40,0.0
4329,-7,-405,-37,-5,23,2024-01-29 16:56:40,0.0
4330,18,-409,-49,14,18,2024-01-29 16:56:40,0.0
4332,28,-408,-62,-3,12,2024-01-29 16:56:40,0.0
4341,31,-353,-44,-8,8,2024-01-29 16:56:40,0.0
4352,37,-429,-42,-2,2,2024-01-29 16:56:40,0.0
4341,-6,-380,-59,-6,-2,2024-01-29 16:56:41,0.0
4292,32,-392,-52,-2,7,2024-01-29 16:56:41,0.0
4342,22,-361,-64,-6,1,2024-01-29 16:56:41,0.0
4297,0,-423,-53,12,2,2024-01-29 16:56:41,0.0
4323,-14,-367,-46,9,5,2024-01-29 16:56:41,0.0
4322,18,-350,-39,4,6,2024-01-29 16:56:41,0.0
4325,-8,-320,-42,-11,11,2024-01-29 16:56:41,0.0
4344,-7,-364,-32,-4,9,2024-01-29 16:56:41,0.0
4318,-2,-300,-34,-21,15,2024-01-29 16:56:41,0.0
4333,21,-340,-28,-43,12,2024-01-29 16:56:41,0.0
4317,56,-324,-29,-38,16,2024-01-29 16:56:41,0.0
4362,33,-349,-37,-79,5,2024-01-29 16:56:41,0.0
4329,3,-314,-36,-48,-6,2024-01-29 16:56:41,0.0
4355,2,-381,-35,-67,12,2024-01-29 16:56:41,0.0
4346,46,-374,-43,-29,8,2024-01-29 16:56:41,0.0
4305,-9,-338,-46,-13,13,2024-01-29 16:56:41,0.0
4349,19,-379,-43,-40,-2,2024-01-29 16:56:41,0.0
4292,41,-346,-41,-54,4,2024-01-29 16:56:41,0.0
4339,32,-383,-49,-40,-1,2024-01-29 16:56:42,0.0
4332,41,-350,-52,-70,-4,2024-01-29 16:56:42,0.0
4313,21,-404,-47,-66,-5,2024-01-29 16:56:42,0.0
4334,32,-398,-41,-57,-1,2024-01-29 16:56:42,0.0
4310,31,-358,-32,-77,3,2024-01-29 16:56:42,0.0
4349,0,-423,-32,-47,-1,2024-01-29 16:56:42,0.0
4299,74,-420,-25,-48,2,2024-01-29 16:56:42,0.0
4374,7,-404,-38,-57,8,2024-01-29 16:56:42,0.0
4306,37,-438,-40,-18,2,2024-01-29 16:56:42,0.0
4309,30,-433,-39,-27,18,2024-01-29 16:56:42,0.0
4357,56,-483,-52,-20,19,2024-01-29 16:56:42,0.0
4328,81,-448,-78,-7,21,2024-01-29 16:56:42,0.0
4300,0,-443,-68,3,32,2024-01-29 16:56:42,0.0
4340,18,-464,-58,9,24,2024-01-29 16:56:42,0.0
4545,38,-560,-41,39,34,2024-01-29 16:56:42,0.0
4500,13,-681,-48,102,51,2024-01-29 16:56:42,0.0
4433,29,-523,-106,191,49,2024-01-29 16:56:42,0.0
4184,12,-468,-85,284,48,2024-01-29 16:56:43,0.0
4292,36,-494,-107,275,31,2024-01-29 16:56:43,0.0
4411,22,-369,-124,483,43,2024-01-29 16:56:43,0.0
4395,-118,-237,-59,517,10,2024-01-29 16:56:43,0.0
4404,32,-335,-77,602,-33,2024-01-29 16:56:43,0.0
3921,-134,-555,-52,625,7,2024-01-29 16:56:43,0.0
4049,26,-373,-96,957,1,2024-01-29 16:56:43,0.0
3495,-214,-285,-98,1023,28,2024-01-29 16:56:43,0.0
3354,-47,-19,-5,1170,3,2024-01-29 16:56:43,0.0
3380,-146,233,-103,1442,-160,2024-01-29 16:56:43,0.0
2312,224,143,-149,1266,-117,2024-01-29 16:56:43,0.0
2564,-173,65,-318,1267,-183,2024-01-29 16:56:43,0.0
1747,-764,-428,-149,1041,-60,2024-01-29 16:56:43,0.0
815,17,1122,-72,1431,-305,2024-01-29 16:56:43,0.0
3402,-925,397,389,2222,42,2024-01-29 16:56:43,0.0
-131,503,870,444,1105,-312,2024-01-29 16:56:43,0.0
-587,56,3357,-1145,1528,-498,2024-01-29 16:56:43,0.0
8562,2889,21289,-283,3532,-43,2024-01-29 16:56:44,0.0
688,-816,9193,72,3890,-458,2024-01-29 16:56:44,0.0
-2563,1015,4319,-46,1785,162,2024-01-29 16:56:44,0.0
-366,-853,1778,-251,1749,-184,2024-01-29 16:56:45,0.0
-3286,726,4893,-15,756,-512,2024-01-29 16:56:45,0.0
-1313,702,1858,36,890,-200,2024-01-29 16:56:45,0.0
-1285,122,2297,-110,-11,-138,2024-01-29 16:56:45,0.0
-2292,746,3043,-407,-867,6,2024-01-29 16:56:45,0.0
-961,134,2605,-247,-1755,38,2024-01-29 16:56:45,0.0
-710,62,6767,-272,-1242,-80,2024-01-29 16:56:45,0.0
474,-908,4538,-206,-624,92,2024-01-29 16:56:45,0.0
416,122,4703,-111,-1008,-105,2024-01-29 16:56:45,0.0
720,-142,3886,29,-118,97,2024-01-29 16:56:45,0.0
697,503,4174,-90,168,-1,2024-01-29 16:56:48,0.0
164,-10,4467,5,100,4,2024-01-29 16:56:48,0.0
487,145,4144,-106,8,30,2024-01-29 16:56:48,0.0
902,262,4095,-152,148,-42,2024-01-29 16:56:48,0.0
452,108,4346,-85,73,-54,2024-01-29 16:56:48,0.0
398,46,4176,-87,3,-28,2024-01-29 16:56:48,0.0
217,-13,4199,-136,45,-34,2024-01-29 16:56:48,0.0
293,3,4324,-62,-102,5,2024-01-29 16:56:48,0.0
492,-84,4230,-24,15,43,2024-01-29 16:56:48,0.0
590,13,4204,-54,-23,6,2024-01-29 16:56:48,0.0
561,1,4144,-52,-27,2,2024-01-29 16:56:48,0.0
575,-10,4231,-47,-25,3,2024-01-29 16:56:48,0.0
554,36,4265,-42,-73,10,2024-01-29 16:56:48,0.0
597,-13,4173,-33,-42,12,2024-01-29 16:56:48,0.0
554,-19,4216,-43,-50,8,2024-01-29 16:56:48,0.0
592,28,4167,-32,-67,3,2024-01-29 16:56:48,0.0
588,30,4213,-40,-46,7,2024-01-29 16:56:48,0.0
604,18,4192,-41,-69,9,2024-01-29 16:56:48,0.0
582,40,4205,-40,-50,3,2024-01-29 16:56:49,0.0
693,17,4143,-55,-18,5,2024-01-29 16:56:49,
623,24,4217,-40,-72,7,2024-01-29 16:56:49,0.0
639,12,4220,-41,-47,10,2024-01-29 16:56:49,0.0
650,25,4229,-34,-58,8,2024-01-29 16:56:49,0.0
615,-14,4151,-36,-47,11,2024-01-29 16:56:49,0.0
674,35,4199,-44,-27,10,2024-01-29 16:56:49,0.0
634,27,4197,-34,-47,7,2024-01-29 16:56:49,0.0
642,18,4139,-38,-13,12,2024-01-29 16:56:49,0.0
652,5,4242,-45,-5,12,2024-01-29 16:56:49,0.0
636,-4,4161,-41,2,11,2024-01-29 16:56:49,0.0
607,-15,4182,-42,17,5,2024-01-29 16:56:49,0.0
624,22,4162,-52,17,11,2024-01-29 16:56:49,0.0
618,14,4178,-39,20,6,2024-01-29 16:56:49,0.0
636,-9,4248,-62,19,11,2024-01-29 16:56:49,0.0
557,8,4173,-59,29,5,2024-01-29 16:56:49,0.0
546,8,4247,-59,35,12,2024-01-29 16:56:49,0.0
566,0,4238,-38,10,11,2024-01-29 16:56:50,0.0
551,32,4221,-29,-18,13,2024-01-29 16:56:50,0.0
544,10,4218,-34,-23,15,2024-01-29 16:56:50,0.0
561,-14,4207,-39,-39,9,2024-01-29 16:56:50,0.0
561,-11,4183,-39,-51,8,2024-01-29 16:56:50,0.0
536,2,4229,-35,-31,8,2024-01-29 16:56:50,0.0
559,-6,4197,-43,-28,10,2024-01-29 16:56:50,0.0
543,-12,4214,-36,-46,7,2024-01-29 16:56:50,0.0
571,-9,4172,-42,-18,9,2024-01-29 16:56:50,0.0
551,17,4239,-40,-31,11,2024-01-29 16:56:50,0.0
537,11,4195,-38,-19,9,2024-01-29 16:56:50,0.0
578,17,4260,-49,-29,8,2024-01-29 16:56:50,0.0
533,-17,4183,-49,-29,5,2024-01-29 16:56:50,0.0
563,16,4254,-44,-19,11,2024-01-29 16:56:50,0.0
528,11,4198,-40,-16,8,2024-01-29 16:56:50,0.0
543,35,4203,-37,-11,9,2024-01-29 16:56:50,0.0
544,1,4190,-43,-3,9,2024-01-29 16:56:50,0.0
517,-36,4202,-54,-7,3,2024-01-29 16:56:50,0.0
504,11,4245,-48,-12,8,2024-01-29 16:56:51,0.0
539,-12,4191,-33,12,12,2024-01-29 16:56:51,0.0
498,7,4213,-47,27,9,2024-01-29 16:56:51,0.0
474,-6,4254,-49,23,9,2024-01-29 16:56:51,0.0
479,8,4219,-52,15,10,2024-01-29 16:56:51,0.0
442,-11,4180,-44,11,10,2024-01-29 16:56:51,0.0
449,-10,4206,-48,-4,11,2024-01-29 16:56:51,0.0
455,-40,4231,-38,-14,6,2024-01-29 16:56:51,0.0
475,-9,4219,-55,-29,5,2024-01-29 16:56:51,0.0
430,-28,4170,-63,4,4,2024-01-29 16:56:51,0.0
433,-6,4259,-44,-50,15,2024-01-29 16:56:51,0.0
466,-10,4225,-42,-28,8,2024-01-29 16:56:51,0.0
441,-49,4240,-37,-29,11,2024-01-29 16:56:51,0.0
450,-24,4232,-40,-41,9,2024-01-29 16:56:51,0.0
437,-20,4196,-47,-20,6,2024-01-29 16:56:51,0.0
441,-20,4236,-35,-55,11,2024-01-29 16:56:51,0.0
454,-33,4237,-34,-41,10,2024-01-29 16:56:51,0.0
441,-23,4247,-26,-76,11,2024-01-29 16:56:52,0.0
450,-16,4184,-30,-70,12,2024-01-29 16:56:52,0.0
492,19,4196,-34,-72,7,2024-01-29 16:56:52,0.0
488,10,4200,-30,-73,8,2024-01-29 16:56:52,0.0
485,-19,4166,-37,-73,11,2024-01-29 16:56:52,0.0
524,-34,4234,-34,-86,13,2024-01-29 16:56:52,0.0
543,17,4236,-36,-71,10,2024-01-29 16:56:52,0.0
546,-34,4125,-52,-45,-3,2024-01-29 16:56:52,0.0
560,8,4253,-42,-83,12,2024-01-29 16:56:52,0.0
560,-16,4231,-34,-75,7,2024-01-29 16:56:52,0.0
602,-21,4234,-30,-77,9,2024-01-29 16:56:52,0.0
568,8,4212,-32,-76,10,2024-01-29 16:56:52,0.0
622,-27,4205,-43,-54,5,2024-01-29 16:56:52,0.0
591,7,4224,-37,-89,7,2024-01-29 16:56:52,0.0
655,12,4217,-27,-65,12,2024-01-29 16:56:52,0.0
643,-11,4149,-32,-56,10,2024-01-29 16:56:52,0.0
626,-23,4207,-37,-63,6,2024-01-29 16:56:52,0.0
664,12,4213,-32,-48,8,2024-01-29 16:56:52,0.0
632,16,4166,-39,-49,8,2024-01-29 16:56:53,0.0
659,10,4181,-34,-38,8,2024-01-29 16:56:53,0.0
686,26,4193,-55,0,10,2024-01-29 16:56:53,0.0
599,-14,4180,-50,-10,2,2024-01-29 16:56:53,0.0
638,8,4221,-49,-5,12,2024-01-29 16:56:53,0.0
633,-16,4228,-42,-4,9,2024-01-29 16:56:53,0.0
659,13,4190,-38,2,9,2024-01-29 16:56:53,0.0
622,1,4244,-46,-8,9,2024-01-29 16:56:53,0.0
642,-19,4207,-49,12,6,2024-01-29 16:56:53,0.0
606,-15,4220,-45,-19,9,2024-01-29 16:56:53,0.0
639,-17,4220,-40,-16,14,2024-01-29 16:56:53,0.0
594,8,4158,-44,-3,8,2024-01-29 16:56:53,0.0
571,-42,4239,-39,-13,11,2024-01-29 16:56:53,0.0
601,-14,4194,-45,-20,8,2024-01-29 16:56:53,0.0
565,-32,4222,-40,-16,11,2024-01-29 16:56:53,0.0
595,16,4198,-51,-15,9,2024-01-29 16:56:53,0.0
579,-3,4106,-53,-5,2,2024-01-29 16:56:53,0.0
553,23,4256,-49,-24,11,2024-01-29 16:56:54,0.0
590,-9,4211,-38,-11,9,2024-01-29 16:56:54,0.0
588,-3,4196,-38,-1,9,2024-01-29 16:56:54,0.0
557,5,4244,-40,-14,9,2024-01-29 16:56:54,0.0
463,-30,4215,39,17,14,2024-01-29 16:56:54,0.0
754,-21,4484,4,65,-14,2024-01-29 16:56:54,0.0
522,86,3784,84,131,9,2024-01-29 16:56:54,0.0
376,89,4540,2,403,-13,2024-01-29 16:56:54,0.0
444,36,4286,5,277,-8,2024-01-29 16:56:54,0.0
303,72,3817,52,376,5,2024-01-29 16:56:54,0.0
383,254,4320,126,376,-23,2024-01-29 16:56:54,0.0
-187,138,4584,-64,148,12,2024-01-29 16:56:54,0.0
-177,96,3756,-52,-14,18,2024-01-29 16:56:54,0.0
-154,-106,3387,-4,-239,79,2024-01-29 16:56:54,0.0
-139,355,4300,-107,-430,-56,2024-01-29 16:56:54,
82,223,4588,-151,-601,-121,2024-01-29 16:56:54,0.0
-55,3,4748,-144,-791,-13,2024-01-29 16:56:54,0.0
687,-139,3894,-41,-652,-7,2024-01-29 16:56:54,0.0
656,65,3771,54,-1117,-33,2024-01-29 16:56:55,0.0
1193,-22,4147,88,-1030,-142,2024-01-29 16:56:55,0.0
1098,-275,5035,205,-1055,-456,2024-01-29 16:56:55,0.0
1672,-288,3780,425,-731,-527,2024-01-29 16:56:55,0.0
2076,254,2768,734,-1059,-611,2024-01-29 16:56:55,0.0
1643,105,4029,886,-1297,-422,2024-01-29 16:56:55,0.0
2058,1061,3457,996,-1006,-254,2024-01-29 16:56:55,0.0
2194,1159,3182,1103,-1339,-222,2024-01-29 16:56:55,0.0
3011,1745,2782,889,-1415,62,2024-01-29 16:56:55,0.0
2822,2198,2978,800,-1506,139,2024-01-29 16:56:55,0.0
3080,2228,1946,679,-1411,68,2024-01-29 16:56:55,0.0
3492,2077,1705,547,-1472,38,2024-01-29 16:56:55,0.0
3037,1931,1959,612,-1023,345,2024-01-29 16:56:55,0.0
3964,2369,1335,211,-1166,111,2024-01-29 16:56:55,0.0
3808,2680,1867,-26,-1137,137,2024-01-29 16:56:55,0.0
4842,2001,1169,-599,-292,-76,2024-01-29 16:56:56,0.0
3874,3130,670,-525,87,-293,2024-01-29 16:56:56,0.0
4031,1950,2111,-1069,1271,-475,2024-01-29 16:56:56,0.0
3192,1691,1965,-1036,1074,-335,2024-01-29 16:56:56,0.0
2989,967,1994,-1027,1228,-497,2024-01-29 16:56:56,0.0
2507,1824,1933,-767,1259,-176,2024-01-29 16:56:56,0.0
2588,926,2087,-188,805,-541,2024-01-29 16:56:56,0.0
1789,1292,1905,862,184,-521,2024-01-29 16:56:56,0.0
1650,1701,2985,1408,-308,-348,2024-01-29 16:56:56,0.0
2059,3018,1596,1005,-116,35,2024-01-29 16:56:56,0.0
1695,1402,2280,1117,-352,476,2024-01-29 16:56:56,0.0
2397,2061,1385,1023,-510,1103,2024-01-29 16:56:56,0.0
3956,2293,877,1239,-420,1812,2024-01-29 16:56:56,0.0
5878,2236,31,1206,-1378,2138,2024-01-29 16:56:56,0.0
6826,2503,230,270,-1932,2027,2024-01-29 16:56:56,0.0
6156,1283,-400,142,-2129,1671,2024-01-29 16:56:56,0.0
5769,698,-352,-166,-2191,708,2024-01-29 16:56:56,0.0
4719,1008,-820,121,-938,541,2024-01-29 16:56:56,0.0
4428,952,-849,-321,-819,315,2024-01-29 16:56:56,0.0
4271,624,-939,-541,-357,379,2024-01-29 16:56:56,0.0
3794,574,-837,-600,-666,454,2024-01-29 16:56:57,0.0
4681,357,-1530,-637,-392,342,2024-01-29 16:56:57,0.0
4555,613,-854,-628,-61,350,2024-01-29 16:56:57,0.0
4104,-196,-843,-495,181,129,2024-01-29 16:56:57,0.0
3708,160,-1083,-398,163,335,2024-01-29 16:56:57,0.0
3276,815,-1185,-805,535,328,2024-01-29 16:56:57,0.0
2246,1418,-75,-1091,302,296,2024-01-29 16:56:57,0.0
2796,393,-832,-906,-579,667,2024-01-29 16:56:57,0.0
3788,1199,-607,-1192,196,366,2024-01-29 16:56:57,0.0
3182,106,-678,-616,127,600,2024-01-29 16:56:57,0.0
4665,353,-1374,-793,465,368,2024-01-29 16:56:57,0.0
4169,81,-760,-978,425,141,2024-01-29 16:56:57,0.0
3754,-750,-679,-250,382,153,2024-01-29 16:56:57,0.0
4067,245,-681,89,425,44,2024-01-29 16:56:57,0.0
4120,504,-595,-231,334,63,2024-01-29 16:56:57,0.0
4267,276,-597,-384,17,117,2024-01-29 16:56:57,0.0
4346,-33,-253,-369,130,204,2024-01-29 16:56:57,0.0
4060,-195,-340,-209,-16,145,2024-01-29 16:56:58,0.0
4060,189,-327,-398,-23,163,2024-01-29 16:56:58,0.0
4176,-443,-139,-529,55,183,2024-01-29 16:56:58,0.0
4539,-674,-17,-524,131,293,2024-01-29 16:56:58,0.0
4756,-579,273,-627,295,340,2024-01-29 16:56:58,0.0
4597,-1112,276,-607,254,276,2024-01-29 16:56:58,0.0
4338,-360,149,-546,145,189,2024-01-29 16:56:58,0.0
4285,-721,233,-619,64,245,2024-01-29 16:56:58,0.0
3958,-490,263,-741,9,203,2024-01-29 16:56:59,0.0
4424,-1026,316,-716,21,237,2024-01-29 16:56:59,0.0
4453,-760,419,-792,10,94,2024-01-29 16:56:59,0.0
4506,-723,240,-914,95,89,2024-01-29 16:56:59,0.0
4158,-726,255,-1260,170,-27,2024-01-29 16:56:59,0.0
3919,-883,-14,-1424,-66,-188,2024-01-29 16:56:59,0.0
4500,-905,-289,-1030,-125,78,2024-01-29 16:56:59,0.0
4603,-551,-144,-1363,40,-38,2024-01-29 16:56:59,0.0
4126,-962,251,-1444,232,-161,2024-01-29 16:56:59,0.0
4314,255,47,-49,-55,-38,2024-01-29 16:56:59,0.0
4339,475,-219,-251,-97,-129,2024-01-29 16:56:59,0.0
4315,249,10,-216,-78,-41,2024-01-29 16:57:00,0.0
4490,187,-169,-206,-34,-81,2024-01-29 16:57:00,0.0
4326,349,-72,-96,-63,-23,2024-01-29 16:57:00,0.0
4182,63,5,-66,179,117,2024-01-29 16:57:00,0.0
4367,232,-87,25,229,94,2024-01-29 16:57:00,0.0
4241,286,-16,33,57,140,2024-01-29 16:57:00,0.0
4343,51,-47,69,-85,11,2024-01-29 16:57:00,0.0
4376,313,-147,128,-62,16,2024-01-29 16:57:00,0.0
4343,231,-85,56,-131,3,2024-01-29 16:57:00,0.0
4176,147,-79,39,-103,-27,2024-01-29 16:57:00,0.0
4427,291,39,-11,-87,5,2024-01-29 16:57:00,0.0
4322,235,-147,-130,-54,58,2024-01-29 16:57:00,0.0
4400,75,-103,-89,-128,36,2024-01-29 16:57:00,0.0
4261,120,-114,-64,62,41,2024-01-29 16:57:00,0.0
4236,136,-25,-81,-44,51,2024-01-29 16:57:00,0.0
4414,193,-109,-142,-26,123,2024-01-29 16:57:00,0.0
4334,60,11,-195,-71,35,2024-01-29 16:57:00,0.0
4390,67,8,-181,-86,-7,2024-01-29 16:57:00,0.0
4308,56,28,-149,-94,-29,2024-01-29 16:57:01,0.0
4347,35,-40,-82,-114,5,2024-01-29 16:57:01,0.0
4316,44,-131,-72,-124,-10,2024-01-29 16:57:01,0.0
4452,90,-260,12,-146,52,2024-01-29 16:57:01,0.0
4438,250,-250,-56,-91,-19,2024-01-29 16:57:01,0.0
4364,180,-437,-40,-91,-22,2024-01-29 16:57:01,0.0
4315,150,-389,-48,27,-5,2024-01-29 16:57:01,0.0
4318,269,-245,-92,-72,5,2024-01-29 16:57:01,
