acceleration_x,acceleration_y,acceleration_z,gyroscope_x,gyroscope_y,gyroscope_z,timestamp,label
4292,-570,847,23,-60,-14,2024-01-29 16:31:37,0.0
4132,-223,886,-14,-14,53,2024-01-29 16:31:37,0.0
4254,-361,1013,18,-78,25,2024-01-29 16:31:37,0.0
4321,-270,979,-38,-65,31,2024-01-29 16:31:37,0.0
4228,-371,1083,-68,-70,18,2024-01-29 16:31:37,0.0
4107,-303,859,-19,42,-1,2024-01-29 16:31:37,0.0
4244,-329,988,-30,-3,6,2024-01-29 16:31:37,0.0
4184,-278,961,6,-6,-2,2024-01-29 16:31:37,0.0
4284,-297,944,-56,-18,5,2024-01-29 16:31:37,0.0
4135,-201,1011,-32,-29,-16,2024-01-29 16:31:37,0.0
4298,-350,930,-47,-21,6,2024-01-29 16:31:37,0.0
4101,-207,1015,-76,-29,-16,2024-01-29 16:31:38,0.0
4312,-350,999,-91,-31,-6,2024-01-29 16:31:38,0.0
4183,-298,992,-73,-35,-13,2024-01-29 16:31:38,0.0
4359,-337,921,-79,-8,-13,2024-01-29 16:31:38,0.0
4156,-259,1056,-64,-139,-7,2024-01-29 16:31:38,0.0
4238,-303,870,-62,-44,14,2024-01-29 16:31:38,0.0
4174,-280,976,-63,-154,12,2024-01-29 16:31:38,0.0
4179,-228,844,-13,-100,17,2024-01-29 16:31:38,0.0
4300,-402,965,-17,-65,29,2024-01-29 16:31:38,0.0
4241,-237,885,38,-85,23,2024-01-29 16:31:38,0.0
4239,-264,893,-47,-70,1,2024-01-29 16:31:38,0.0
4245,-295,847,-31,-63,26,2024-01-29 16:31:38,0.0
4271,-312,853,-25,-101,17,2024-01-29 16:31:38,0.0
4255,-321,801,-69,-178,15,2024-01-29 16:31:38,0.0
4249,-253,714,11,0,32,2024-01-29 16:31:38,0.0
4281,-285,866,-53,-60,12,2024-01-29 16:31:38,0.0
4269,-313,707,-45,-20,1,2024-01-29 16:31:38,0.0
4361,-274,842,-2,-26,13,2024-01-29 16:31:38,0.0
4196,-290,767,-74,-91,-10,2024-01-29 16:31:39,0.0
4258,-325,699,-13,-54,11,2024-01-29 16:31:39,0.0
4321,-272,776,-30,31,10,2024-01-29 16:31:39,0.0
4292,-297,716,-54,79,-3,2024-01-29 16:31:39,0.0
4263,-298,846,-51,62,8,2024-01-29 16:31:39,0.0
4242,-286,818,-62,33,-1,2024-01-29 16:31:39,0.0
4186,-370,838,-27,-74,22,2024-01-29 16:31:39,0.0
4224,-344,708,-4,-133,21,2024-01-29 16:31:39,0.0
4343,-290,610,26,-55,25,2024-01-29 16:31:39,0.0
4352,-190,785,-77,-3,26,2024-01-29 16:31:41,0.0
4260,-275,866,-130,66,-18,2024-01-29 16:31:41,0.0
4229,-265,928,-153,20,-16,2024-01-29 16:31:41,0.0
4270,-453,879,-72,53,0,2024-01-29 16:31:41,0.0
4207,-256,801,-53,-20,19,2024-01-29 16:31:41,0.0
4297,-338,876,-32,11,31,2024-01-29 16:31:41,0.0
4197,-315,905,-26,-66,24,2024-01-29 16:31:41,0.0
4333,-385,801,13,8,25,2024-01-29 16:31:41,0.0
4266,-406,820,-19,-21,33,2024-01-29 16:31:41,0.0
4309,-441,727,281,-33,108,2024-01-29 16:31:41,0.0
4133,-420,784,380,-196,78,2024-01-29 16:31:41,0.0
4292,-503,786,507,-199,122,2024-01-29 16:31:41,0.0
4237,-285,586,516,-190,134,2024-01-29 16:31:41,0.0
4297,-408,706,531,-104,112,2024-01-29 16:31:41,0.0
4388,-363,670,525,-105,138,2024-01-29 16:31:42,0.0
4222,-446,735,554,-88,118,2024-01-29 16:31:42,0.0
4316,-386,669,528,-101,119,2024-01-29 16:31:42,0.0
4297,-329,757,532,-49,124,2024-01-29 16:31:42,0.0
4201,-365,699,403,-78,133,2024-01-29 16:31:42,0.0
4259,-400,663,404,-21,131,2024-01-29 16:31:42,0.0
4285,-740,674,417,-28,152,2024-01-29 16:31:42,0.0
4225,-371,718,441,-23,165,2024-01-29 16:31:42,0.0
4281,-484,729,377,-81,162,2024-01-29 16:31:42,0.0
4310,-579,672,376,-43,160,2024-01-29 16:31:42,0.0
4281,-489,760,339,-131,142,2024-01-29 16:31:42,0.0
4370,-349,773,284,13,103,2024-01-29 16:31:44,0.0
4418,-599,687,240,-30,108,2024-01-29 16:31:44,0.0
4137,-367,774,68,-27,-14,2024-01-29 16:31:44,0.0
4357,-516,695,-58,-90,42,2024-01-29 16:31:44,0.0
4097,-478,697,-95,-78,-57,2024-01-29 16:31:44,0.0
4466,-602,797,-92,-38,-25,2024-01-29 16:31:44,0.0
4280,-468,661,-191,31,-35,2024-01-29 16:31:44,0.0
4148,-474,705,-231,39,-64,2024-01-29 16:31:44,0.0
4294,-659,756,-201,1,-58,2024-01-29 16:31:45,0.0
4373,-287,624,-9,69,17,2024-01-29 16:31:45,0.0
4231,-225,777,-9,133,6,2024-01-29 16:31:45,0.0
4221,-316,973,-52,148,-8,2024-01-29 16:31:45,0.0
4207,-296,975,-55,29,29,2024-01-29 16:31:45,0.0
4281,-446,877,24,-72,23,2024-01-29 16:31:45,0.0
4251,-218,835,11,-35,3,2024-01-29 16:31:45,0.0
4212,-465,889,33,-40,14,2024-01-29 16:31:45,0.0
4219,-114,854,-15,-47,13,2024-01-29 16:31:45,0.0
4251,-362,903,-25,-94,65,2024-01-29 16:31:45,0.0
4310,-176,637,-97,-17,83,2024-01-29 16:31:45,0.0
4066,-102,779,-220,-76,84,2024-01-29 16:31:45,0.0
4413,-575,915,-120,25,30,2024-01-29 16:31:45,0.0
4433,-535,1101,52,-52,2,2024-01-29 16:31:45,0.0
4590,-433,777,-23,10,-85,2024-01-29 16:31:45,0.0
4176,-283,872,-34,69,-134,2024-01-29 16:31:45,0.0
4039,-251,918,30,-22,-161,2024-01-29 16:31:46,0.0
3972,-263,700,-12,-131,-121,2024-01-29 16:31:46,0.0
4306,-264,743,29,-49,-148,2024-01-29 16:31:46,0.0
4443,-151,828,-49,2,-80,2024-01-29 16:31:46,0.0
4531,-13,1085,-45,117,-7,2024-01-29 16:31:46,0.0
4395,-257,858,-3,-109,105,2024-01-29 16:31:46,0.0
4163,-79,896,-67,-27,137,2024-01-29 16:31:46,0.0
4054,-174,932,-185,-49,162,2024-01-29 16:31:46,0.0
4154,-242,681,-165,-52,108,2024-01-29 16:31:46,0.0
4188,-437,744,-119,-33,87,2024-01-29 16:31:46,0.0
4330,-333,885,13,28,56,2024-01-29 16:31:46,0.0
4340,-383,802,45,70,22,2024-01-29 16:31:46,0.0
4501,-150,884,-40,24,2,2024-01-29 16:31:46,
4065,-206,915,-60,-42,-11,2024-01-29 16:31:46,0.0
4218,-242,898,-29,-137,-10,2024-01-29 16:31:46,0.0
4284,-276,761,-6,-105,17,2024-01-29 16:31:46,0.0
4366,-251,756,-26,-90,7,2024-01-29 16:31:46,0.0
4262,-340,823,-10,-99,9,2024-01-29 16:31:47,0.0
4201,-280,857,-7,-55,28,2024-01-29 16:31:47,0.0
4316,-244,767,-16,-76,11,2024-01-29 16:31:47,0.0
4312,-285,771,-43,-91,24,2024-01-29 16:31:47,0.0
4340,-308,721,0,-76,20,2024-01-29 16:31:47,0.0
4173,-304,698,-5,-50,44,2024-01-29 16:31:47,0.0
4343,-252,524,12,-26,35,2024-01-29 16:31:47,0.0
4211,-287,716,-36,-43,16,2024-01-29 16:31:47,0.0
4247,-325,768,-72,-85,7,2024-01-29 16:31:47,0.0
4350,-421,744,4,-35,4,2024-01-29 16:31:47,0.0
4254,-330,715,-13,-16,2,2024-01-29 16:31:47,0.0
4286,-313,671,-11,-6,8,2024-01-29 16:31:47,0.0
4259,-226,703,-31,15,13,2024-01-29 16:31:47,0.0
4237,-327,724,-56,7,14,2024-01-29 16:31:47,0.0
4296,-329,732,-71,8,10,2024-01-29 16:31:47,0.0
4298,-331,724,-55,34,21,2024-01-29 16:31:47,0.0
4343,-328,878,1,60,17,2024-01-29 16:31:47,0.0
4202,-243,765,-40,29,-7,2024-01-29 16:31:48,0.0
4221,-318,695,-9,76,20,2024-01-29 16:31:48,0.0
4231,-268,872,-62,-20,8,2024-01-29 16:31:48,0.0
4259,-317,792,-16,-22,41,2024-01-29 16:31:48,0.0
4260,-369,852,-49,-1,38,2024-01-29 16:31:48,0.0
4244,-362,792,8,-5,52,2024-01-29 16:31:48,0.0
4292,-316,832,10,-23,52,2024-01-29 16:31:48,0.0
4235,-361,819,-4,-26,32,2024-01-29 16:31:48,0.0
4269,-289,831,-24,-19,15,2024-01-29 16:31:48,0.0
4299,-383,790,3,-49,17,2024-01-29 16:31:48,0.0
4281,-335,860,9,4,9,2024-01-29 16:31:48,0.0
4265,-294,798,-47,-27,6,2024-01-29 16:31:48,0.0
4241,-369,884,-53,-54,-2,2024-01-29 16:31:48,0.0
4311,-333,729,-56,-11,1,2024-01-29 16:31:48,0.0
4268,-321,890,-83,-3,-19,2024-01-29 16:31:48,0.0
4232,-359,825,-71,-14,-13,2024-01-29 16:31:48,0.0
4353,-350,860,-74,-9,-6,2024-01-29 16:31:48,0.0
4191,-305,866,-29,-21,-21,2024-01-29 16:31:48,0.0
4326,-243,857,-99,-7,-45,2024-01-29 16:31:49,0.0
4200,-293,858,-124,-54,-39,2024-01-29 16:31:49,0.0
4290,-268,843,-146,-78,-43,2024-01-29 16:31:49,0.0
4304,-341,772,-173,53,-36,2024-01-29 16:31:49,0.0
4216,-329,872,-186,29,-33,2024-01-29 16:31:49,0.0
4286,-312,816,-142,14,-16,2024-01-29 16:31:49,0.0
4195,-342,897,-158,-58,-6,2024-01-29 16:31:49,0.0
4209,-370,830,-119,-27,-6,2024-01-29 16:31:49,0.0
4281,-276,724,-67,10,29,2024-01-29 16:31:49,0.0
4252,-288,840,-75,-45,26,2024-01-29 16:31:49,0.0
4273,-314,824,-64,-25,26,2024-01-29 16:31:49,0.0
4200,-319,912,-80,-52,28,2024-01-29 16:31:49,0.0
4238,-299,814,-56,-65,4,2024-01-29 16:31:49,0.0
4195,-348,897,-13,-56,23,2024-01-29 16:31:49,0.0
4278,-355,823,1,-32,14,2024-01-29 16:31:49,0.0
4304,-308,836,5,-14,32,2024-01-29 16:31:49,0.0
4289,-335,844,7,-38,27,2024-01-29 16:31:49,0.0
4215,-353,911,32,-15,25,2024-01-29 16:31:49,0.0
4311,-309,873,-1,-39,27,2024-01-29 16:31:50,0.0
4219,-272,825,-11,-12,-7,2024-01-29 16:31:50,0.0
4233,-340,788,50,83,15,2024-01-29 16:31:50,0.0
4335,-275,948,-39,-20,1,2024-01-29 16:31:50,0.0
4200,-305,872,-34,17,3,2024-01-29 16:31:50,0.0
4277,-378,918,-49,-27,10,2024-01-29 16:31:50,0.0
4235,-367,798,-10,16,6,2024-01-29 16:31:50,0.0
4300,-295,891,-56,-7,16,2024-01-29 16:31:50,0.0
4134,-333,916,-25,-11,0,2024-01-29 16:31:50,0.0
4291,-318,831,-30,-9,8,2024-01-29 16:31:50,0.0
4219,-318,880,-32,-25,-1,2024-01-29 16:31:50,0.0
4283,-346,842,-40,-40,2,2024-01-29 16:31:50,0.0
4174,-299,881,-37,-43,-12,2024-01-29 16:31:50,0.0
4334,-342,863,-53,-55,-7,2024-01-29 16:31:50,0.0
4262,-291,823,-55,13,-4,2024-01-29 16:31:50,0.0
4252,-288,980,-85,-92,-17,2024-01-29 16:31:50,0.0
4204,-290,865,-59,-13,-10,2024-01-29 16:31:50,0.0
4274,-295,921,-74,-16,-6,2024-01-29 16:31:51,0.0
4233,-330,844,-26,-6,1,2024-01-29 16:31:51,0.0
4317,-279,892,-57,-20,8,2024-01-29 16:31:51,0.0
4182,-318,932,-36,-32,6,2024-01-29 16:31:51,0.0
4277,-277,865,-49,-45,1,2024-01-29 16:31:51,0.0
4235,-296,877,-43,-65,14,2024-01-29 16:31:51,0.0
4231,-323,880,-50,-84,15,2024-01-29 16:31:51,0.0
4234,-268,861,-33,-88,17,2024-01-29 16:31:51,0.0
4298,-336,809,-33,-65,4,2024-01-29 16:31:51,0.0
4218,-295,847,-29,-49,6,2024-01-29 16:31:51,0.0
4220,-299,748,-7,-12,14,2024-01-29 16:31:51,0.0
4302,-295,841,-44,-88,19,2024-01-29 16:31:51,0.0
4218,-283,773,-28,-83,13,2024-01-29 16:31:51,0.0
4270,-254,830,-26,-81,19,2024-01-29 16:31:51,0.0
4259,-344,792,-40,-56,17,2024-01-29 16:31:51,0.0
4244,-315,791,-8,-52,14,2024-01-29 16:31:51,0.0
4305,-264,728,-38,-44,15,2024-01-29 16:31:51,0.0
4201,-347,745,-23,-64,11,2024-01-29 16:31:51,0.0
4299,-288,758,-34,-61,17,2024-01-29 16:31:52,0.0
4232,-364,808,-44,-77,14,2024-01-29 16:31:52,0.0
4327,-326,691,-25,-21,16,2024-01-29 16:31:52,0.0
4297,-293,800,-21,15,8,2024-01-29 16:31:52,0.0
4296,-341,703,-29,25,-7,2024-01-29 16:31:52,0.0
4265,-297,706,-18,8,11,2024-01-29 16:31:52,0.0
4337,-283,782,-35,33,-12,2024-01-29 16:31:52,0.0
4182,-256,805,-76,20,-5,2024-01-29 16:31:52,
4255,-267,819,-55,21,1,2024-01-29 16:31:52,0.0
4309,-344,747,-30,25,5,2024-01-29 16:31:52,0.0
4284,-289,819,-29,-3,21,2024-01-29 16:31:52,0.0
4199,-265,838,-41,5,1,2024-01-29 16:31:52,0.0
4286,-286,809,-40,-4,20,2024-01-29 16:31:52,0.0
4281,-285,846,-30,-2,7,2024-01-29 16:31:52,0.0
4245,-330,888,-35,5,24,2024-01-29 16:31:52,0.0
4279,-272,846,-32,-27,8,2024-01-29 16:31:52,0.0
4252,-297,890,-41,5,5,2024-01-29 16:31:52,0.0
4221,-302,877,-29,-40,5,2024-01-29 16:31:53,0.0
4209,-290,851,-29,-14,-2,2024-01-29 16:31:53,0.0
4315,-257,729,-17,58,-2,2024-01-29 16:31:53,0.0
4246,-279,916,-51,-19,17,2024-01-29 16:31:53,0.0
4286,-320,848,-43,-38,10,2024-01-29 16:31:53,0.0
4207,-309,874,-40,-57,22,2024-01-29 16:31:53,0.0
4252,-313,833,-37,-41,9,2024-01-29 16:31:53,0.0
4255,-286,900,-40,-52,17,2024-01-29 16:31:53,0.0
4279,-306,835,-28,-32,18,2024-01-29 16:31:53,0.0
4235,-300,871,-40,-22,14,2024-01-29 16:31:53,0.0
4269,-278,823,-32,2,11,2024-01-29 16:31:53,0.0
4242,-291,873,-45,-39,15,2024-01-29 16:31:53,0.0
4272,-346,830,-39,-37,19,2024-01-29 16:31:53,0.0
4269,-328,852,-40,-45,20,2024-01-29 16:31:53,0.0
4280,-283,826,-47,-31,6,2024-01-29 16:31:53,0.0
4282,-352,842,-46,-69,17,2024-01-29 16:31:53,0.0
4311,-302,790,-40,-70,18,2024-01-29 16:31:53,0.0
4283,-375,851,-58,-83,9,2024-01-29 16:31:54,0.0
4178,-265,792,-29,-77,9,2024-01-29 16:31:54,0.0
4303,-372,802,-69,-75,14,2024-01-29 16:31:54,0.0
4211,-298,789,-46,-59,8,2024-01-29 16:31:54,0.0
4292,-334,755,-46,-57,11,2024-01-29 16:31:54,0.0
4253,-280,785,-40,-62,9,2024-01-29 16:31:54,0.0
4257,-351,760,-47,-82,6,2024-01-29 16:31:54,0.0
4241,-301,729,-41,-94,6,2024-01-29 16:31:54,0.0
4298,-344,717,-21,-75,11,2024-01-29 16:31:54,0.0
4264,-309,749,-40,-71,17,2024-01-29 16:31:54,0.0
4276,-304,706,-24,-36,10,2024-01-29 16:31:54,0.0
4230,-261,712,-26,-17,13,2024-01-29 16:31:54,0.0
4286,-367,744,-13,-14,16,2024-01-29 16:31:54,0.0
4230,-317,766,-10,2,15,2024-01-29 16:31:54,0.0
4327,-295,733,-8,44,3,2024-01-29 16:31:54,0.0
4254,-252,789,-34,13,16,2024-01-29 16:31:54,0.0
4275,-314,725,-9,-1,21,2024-01-29 16:31:54,0.0
4275,-328,783,-37,19,18,2024-01-29 16:31:54,0.0
4279,-332,794,-25,10,9,2024-01-29 16:31:55,0.0
4251,-308,779,-22,28,12,2024-01-29 16:31:55,0.0
4299,-317,800,-24,-15,19,2024-01-29 16:31:55,0.0
4196,-318,766,-22,9,5,2024-01-29 16:31:55,0.0
4211,-277,808,-57,-27,7,2024-01-29 16:31:55,0.0
4287,-341,807,-49,-26,5,2024-01-29 16:31:55,0.0
4243,-393,796,-26,-29,12,2024-01-29 16:31:55,0.0
4342,-330,802,-35,4,10,2024-01-29 16:31:55,0.0
4160,-299,837,-56,-26,9,2024-01-29 16:31:55,0.0
4272,-340,784,-43,-4,10,2024-01-29 16:31:55,0.0
4381,-276,559,-36,70,4,2024-01-29 16:31:55,0.0
4379,-378,776,-73,-40,5,2024-01-29 16:31:55,0.0
4227,-378,583,-47,-31,2,2024-01-29 16:31:55,0.0
4102,-415,576,-14,-73,13,2024-01-29 16:31:55,0.0
4290,-280,372,21,-53,9,2024-01-29 16:31:55,0.0
4105,-365,571,-32,34,11,2024-01-29 16:31:55,0.0
4422,-226,538,-12,239,-45,2024-01-29 16:31:55,0.0
4165,-250,738,-85,269,9,2024-01-29 16:31:55,0.0
3588,-345,522,-83,197,32,2024-01-29 16:31:56,0.0
4052,-198,489,193,357,13,2024-01-29 16:31:56,0.0
3409,-444,624,-33,463,-28,2024-01-29 16:31:56,0.0
4082,-181,609,149,862,-22,2024-01-29 16:31:56,0.0
3571,-158,1337,-84,788,-58,2024-01-29 16:31:56,0.0
3926,-96,945,-70,902,-91,2024-01-29 16:31:56,0.0
2969,-635,1214,-42,973,-137,2024-01-29 16:31:56,0.0
3627,-87,824,-106,1223,-53,2024-01-29 16:31:56,0.0
2860,-395,1583,-159,1259,-168,2024-01-29 16:31:56,0.0
3353,-248,1303,-254,1612,-198,2024-01-29 16:31:56,0.0
3309,-243,1441,-278,1312,-127,2024-01-29 16:31:56,0.0
2442,-344,2127,-378,1352,-164,2024-01-29 16:31:56,0.0
2681,-367,1401,-183,2131,-122,2024-01-29 16:31:56,0.0
2048,-109,503,-200,1734,-159,2024-01-29 16:31:56,0.0
483,0,894,-407,2922,-319,2024-01-29 16:31:56,0.0
653,856,3782,-1070,2290,186,2024-01-29 16:31:56,0.0
-5495,-3993,19020,-478,3360,88,2024-01-29 16:31:56,0.0
-6998,-3679,10110,-59,237,822,2024-01-29 16:31:57,0.0
-1197,466,2049,829,-431,-453,2024-01-29 16:31:57,0.0
953,-179,1449,669,913,-231,2024-01-29 16:31:57,0.0
-1790,1048,2003,-147,-767,158,2024-01-29 16:31:57,0.0
-987,-832,3238,-277,-463,-64,2024-01-29 16:31:57,0.0
467,368,5127,-257,-1248,104,2024-01-29 16:31:57,0.0
-349,-1027,5020,-278,30,-31,2024-01-29 16:31:57,0.0
385,52,4192,-175,-422,139,2024-01-29 16:31:57,0.0
-125,-888,3716,-248,331,-2,2024-01-29 16:31:57,0.0
-185,-795,4092,-88,-193,26,2024-01-29 16:31:57,0.0
142,-999,4181,-108,-152,14,2024-01-29 16:31:57,0.0
120,-608,4300,-57,-127,-55,2024-01-29 16:31:57,0.0
-135,-725,4343,28,-60,-7,2024-01-29 16:31:57,0.0
-48,-543,3960,67,69,3,2024-01-29 16:31:57,0.0
-72,-618,4230,75,-89,25,2024-01-29 16:31:57,0.0
43,-494,4152,14,-48,18,2024-01-29 16:31:57,0.0
14,-426,4188,-16,-84,-13,2024-01-29 16:31:57,0.0
59,-458,4326,-68,-24,-13,2024-01-29 16:31:57,0.0
-23,-605,4157,-37,-38,-33,2024-01-29 16:31:58,0.0
-4,-639,4224,14,-18,-11,2024-01-29 16:31:58,0.0
35,-563,4144,-38,-47,11,2024-01-29 16:31:58,
-6,-517,4199,-13,-89,8,2024-01-29 16:31:58,0.0
6,-546,4152,-38,25,-11,2024-01-29 16:31:58,0.0
51,-501,4256,-7,-83,-2,2024-01-29 16:31:58,0.0
-20,-575,4149,-31,40,2,2024-01-29 16:31:58,0.0
34,-603,4156,-39,-34,7,2024-01-29 16:31:58,0.0
40,-527,4179,-12,-80,-1,2024-01-29 16:31:58,0.0
62,-558,4249,-22,-11,8,2024-01-29 16:31:58,0.0
32,-513,4158,-18,-65,-3,2024-01-29 16:31:58,0.0
60,-530,4186,-5,-55,-3,2024-01-29 16:31:58,0.0
45,-477,4216,-8,-77,10,2024-01-29 16:31:58,0.0
52,-525,4258,-11,-57,-1,2024-01-29 16:31:58,0.0
92,-470,4218,-23,-94,2,2024-01-29 16:31:58,0.0
-7,-534,4310,-39,-43,5,2024-01-29 16:31:58,0.0
8,-473,4209,-29,-126,-5,2024-01-29 16:31:58,0.0
105,-506,4163,-68,25,25,2024-01-29 16:31:59,0.0
66,-470,4165,-67,-46,16,2024-01-29 16:31:59,0.0
97,-492,4273,-49,-101,9,2024-01-29 16:31:59,0.0
92,-543,4213,-69,-12,7,2024-01-29 16:31:59,0.0
119,-495,4166,-66,-51,6,2024-01-29 16:31:59,0.0
71,-527,4194,-66,-20,3,2024-01-29 16:31:59,0.0
169,-521,4161,-45,-14,10,2024-01-29 16:31:59,0.0
69,-510,4149,-54,-58,8,2024-01-29 16:31:59,0.0
81,-505,4230,-54,-97,10,2024-01-29 16:31:59,0.0
92,-541,4301,-60,-50,16,2024-01-29 16:31:59,0.0
193,-520,4196,-37,-141,4,2024-01-29 16:31:59,0.0
32,-562,4276,-54,-18,8,2024-01-29 16:31:59,0.0
164,-549,4172,-70,-49,21,2024-01-29 16:31:59,0.0
132,-576,4193,-27,-29,14,2024-01-29 16:31:59,0.0
121,-556,4181,-41,-25,21,2024-01-29 16:31:59,0.0
142,-583,4157,-2,-43,-7,2024-01-29 16:31:59,0.0
191,-494,4199,-27,-34,-4,2024-01-29 16:31:59,0.0
56,-597,4245,9,-31,-5,2024-01-29 16:31:59,0.0
117,-595,4123,-39,-106,-28,2024-01-29 16:32:00,0.0
164,-361,4296,6,-230,-3,2024-01-29 16:32:00,0.0
169,-424,4350,-12,58,9,2024-01-29 16:32:00,0.0
56,-626,4016,-50,-231,-2,2024-01-29 16:32:00,0.0
257,-519,4412,25,-37,6,2024-01-29 16:32:00,0.0
265,-455,4186,-8,66,3,2024-01-29 16:32:00,0.0
38,-443,4135,-19,-68,-6,2024-01-29 16:32:00,0.0
156,-498,4295,-2,-51,1,2024-01-29 16:32:00,0.0
261,-511,4228,28,65,2,2024-01-29 16:32:00,0.0
197,-380,4196,-2,-53,13,2024-01-29 16:32:00,0.0
190,-450,4242,-8,-9,-2,2024-01-29 16:32:00,0.0
158,-408,4165,-13,-43,-5,2024-01-29 16:32:00,0.0
261,-395,4245,-13,-62,-2,2024-01-29 16:32:00,0.0
242,-475,4186,-29,-95,20,2024-01-29 16:32:00,0.0
221,-384,4178,-38,8,33,2024-01-29 16:32:00,0.0
165,-383,4275,-36,-126,-10,2024-01-29 16:32:00,0.0
208,-406,4261,-33,-27,-3,2024-01-29 16:32:00,0.0
209,-404,4157,-52,-53,3,2024-01-29 16:32:01,0.0
228,-498,4317,-50,-131,-19,2024-01-29 16:32:01,0.0
168,-420,4334,-88,-133,12,2024-01-29 16:32:01,0.0
275,-416,4221,-59,-22,11,2024-01-29 16:32:01,0.0
243,-433,4163,-58,-24,17,2024-01-29 16:32:01,0.0
257,-436,4211,-42,-67,19,2024-01-29 16:32:01,0.0
241,-428,4219,-39,-2,26,2024-01-29 16:32:01,0.0
264,-446,4260,-35,-69,21,2024-01-29 16:32:01,0.0
292,-445,4160,-57,35,12,2024-01-29 16:32:01,0.0
308,-460,4138,-42,13,17,2024-01-29 16:32:01,0.0
333,-465,4121,-49,126,12,2024-01-29 16:32:01,0.0
308,-518,4124,-56,-14,-3,2024-01-29 16:32:01,0.0
204,-503,4240,-52,-6,22,2024-01-29 16:32:01,0.0
247,-439,4194,-65,-56,15,2024-01-29 16:32:01,0.0
270,-475,4186,-66,15,17,2024-01-29 16:32:01,0.0
245,-488,4226,-50,-116,4,2024-01-29 16:32:01,0.0
234,-491,4159,-74,37,7,2024-01-29 16:32:01,0.0
209,-520,4205,-28,-22,7,2024-01-29 16:32:01,0.0
206,-500,4225,-40,-71,6,2024-01-29 16:32:02,0.0
263,-489,4134,-36,3,10,2024-01-29 16:32:02,0.0
217,-500,4212,-25,-30,4,2024-01-29 16:32:02,0.0
260,-473,4209,-32,-44,9,2024-01-29 16:32:02,0.0
196,-508,4209,-28,-24,5,2024-01-29 16:32:02,0.0
159,-489,4195,-51,33,3,2024-01-29 16:32:02,0.0
226,-495,4190,-10,-5,5,2024-01-29 16:32:02,0.0
224,-471,4145,-16,17,1,2024-01-29 16:32:02,0.0
240,-488,4224,-21,-54,7,2024-01-29 16:32:02,0.0
251,-444,4234,-35,-24,11,2024-01-29 16:32:02,0.0
266,-464,4167,-44,28,3,2024-01-29 16:32:02,0.0
282,-449,4212,-27,-65,1,2024-01-29 16:32:02,0.0
240,-449,4194,-29,-23,7,2024-01-29 16:32:02,0.0
234,-504,4178,-16,-37,9,2024-01-29 16:32:02,0.0
254,-437,4191,-24,-3,4,2024-01-29 16:32:02,0.0
268,-445,4228,-25,-37,4,2024-01-29 16:32:02,0.0
236,-496,4225,-24,-36,8,2024-01-29 16:32:02,0.0
256,-411,4199,-35,-11,9,2024-01-29 16:32:03,0.0
226,-452,4164,-17,20,10,2024-01-29 16:32:03,0.0
245,-401,4212,-30,-64,12,2024-01-29 16:32:03,0.0
274,-435,4274,-42,-29,13,2024-01-29 16:32:03,0.0
232,-425,4260,-16,-125,1,2024-01-29 16:32:03,0.0
158,-414,4236,-33,-28,4,2024-01-29 16:32:03,0.0
241,-435,4191,-24,-24,3,2024-01-29 16:32:03,0.0
230,-433,4247,-20,-81,-3,2024-01-29 16:32:03,0.0
206,-402,4219,-35,-42,1,2024-01-29 16:32:03,0.0
271,-412,4196,-20,-26,-8,2024-01-29 16:32:03,0.0
232,-377,4217,-28,-64,2,2024-01-29 16:32:03,0.0
254,-393,4225,-25,-53,2,2024-01-29 16:32:03,0.0
249,-391,4186,-31,-24,7,2024-01-29 16:32:03,0.0
267,-419,4190,-40,-34,13,2024-01-29 16:32:03,0.0
231,-438,4210,-28,-21,6,2024-01-29 16:32:03,0.0
244,-395,4185,-39,15,11,2024-01-29 16:32:03,
239,-411,4230,-36,-38,7,2024-01-29 16:32:03,0.0
273,-399,4172,-50,20,6,2024-01-29 16:32:04,0.0
360,-378,4101,-46,101,17,2024-01-29 16:32:04,0.0
279,-411,4174,-50,-70,-4,2024-01-29 16:32:04,0.0
216,-388,4283,-92,-92,18,2024-01-29 16:32:04,0.0
260,-547,4185,-59,-23,27,2024-01-29 16:32:04,0.0
344,-287,4142,-103,-15,23,2024-01-29 16:32:04,0.0
255,-483,4272,-55,-89,-7,2024-01-29 16:32:04,0.0
222,-410,4236,-65,-45,14,2024-01-29 16:32:04,0.0
314,-484,4118,-67,-18,0,2024-01-29 16:32:04,0.0
274,-499,4207,-50,-7,37,2024-01-29 16:32:04,0.0
293,-468,4200,-57,-38,19,2024-01-29 16:32:04,0.0
362,-485,4107,-58,35,29,2024-01-29 16:32:04,0.0
364,-468,4122,-45,28,18,2024-01-29 16:32:04,0.0
309,-446,4148,-43,-78,6,2024-01-29 16:32:04,0.0
182,-485,4199,-33,8,19,2024-01-29 16:32:04,0.0
279,-486,4109,-49,-8,14,2024-01-29 16:32:04,0.0
243,-516,4170,-22,-46,5,2024-01-29 16:32:04,0.0
317,-484,4263,-32,-72,13,2024-01-29 16:32:04,0.0
150,-474,4166,-28,-45,7,2024-01-29 16:32:05,0.0
226,-437,4240,-27,-34,5,2024-01-29 16:32:05,0.0
241,-451,4218,-14,-17,8,2024-01-29 16:32:05,0.0
282,-457,4243,-17,-41,10,2024-01-29 16:32:05,0.0
254,-499,4178,-26,-33,10,2024-01-29 16:32:05,0.0
239,-454,4222,-12,-22,9,2024-01-29 16:32:05,0.0
233,-443,4199,-26,-38,8,2024-01-29 16:32:05,0.0
247,-396,4187,-12,-7,11,2024-01-29 16:32:05,0.0
267,-437,4290,-38,56,7,2024-01-29 16:32:05,0.0
221,-391,4148,-7,24,1,2024-01-29 16:32:05,0.0
237,-478,4163,-17,44,9,2024-01-29 16:32:05,0.0
228,-451,4206,-13,-132,0,2024-01-29 16:32:05,0.0
135,-383,4233,-34,-15,10,2024-01-29 16:32:05,0.0
222,-384,4190,-21,18,11,2024-01-29 16:32:05,0.0
179,-401,4249,-37,-64,8,2024-01-29 16:32:05,0.0
137,-436,4233,-15,-18,0,2024-01-29 16:32:05,0.0
207,-416,4227,-35,-29,6,2024-01-29 16:32:05,0.0
315,-431,4197,-19,294,89,2024-01-29 16:32:06,0.0
-179,-533,4208,-50,70,65,2024-01-29 16:32:06,0.0
166,-399,4012,-68,551,82,2024-01-29 16:32:06,0.0
-340,-334,4359,-50,-77,68,2024-01-29 16:32:06,0.0
-38,-422,4071,121,437,90,2024-01-29 16:32:06,0.0
-50,-239,4100,1,-214,27,2024-01-29 16:32:06,0.0
120,-102,4384,-173,-79,-19,2024-01-29 16:32:06,0.0
-307,-1176,4242,-60,310,0,2024-01-29 16:32:06,0.0
-468,-285,3850,138,-113,98,2024-01-29 16:32:06,0.0
288,-133,4263,52,-276,73,2024-01-29 16:32:06,0.0
-449,-321,4530,35,109,33,2024-01-29 16:32:06,0.0
-283,-53,4581,-115,-175,58,2024-01-29 16:32:06,0.0
-629,-288,4307,-205,-456,-46,2024-01-29 16:32:06,0.0
-244,5,4642,-165,-750,-120,2024-01-29 16:32:06,0.0
-76,-1373,4300,-344,-1016,-175,2024-01-29 16:32:06,0.0
489,-307,4473,140,-1144,-153,2024-01-29 16:32:06,0.0
881,-672,4568,77,-1283,-103,2024-01-29 16:32:06,0.0
1396,-154,4051,102,-1290,-17,2024-01-29 16:32:06,0.0
1504,-180,4322,-6,-1368,-176,2024-01-29 16:32:07,0.0
1222,-543,3319,3,-1028,-144,2024-01-29 16:32:07,0.0
1988,-461,4461,-20,-1194,-82,2024-01-29 16:32:07,0.0
1591,-258,3640,35,-1212,-17,2024-01-29 16:32:07,0.0
2820,-261,2912,-15,-777,102,2024-01-29 16:32:07,0.0
2450,-446,3507,52,-1189,100,2024-01-29 16:32:07,0.0
2637,-35,2980,89,-1435,174,2024-01-29 16:32:07,0.0
2922,-518,3778,54,-1467,212,2024-01-29 16:32:07,0.0
2754,-74,3092,193,-1721,315,2024-01-29 16:32:07,0.0
4637,351,3110,-553,-1956,385,2024-01-29 16:32:07,0.0
4309,-1051,1772,-701,-569,35,2024-01-29 16:32:07,0.0
3179,-1512,1629,-1081,-1666,-185,2024-01-29 16:32:07,0.0
4539,-822,1071,-1081,-1142,267,2024-01-29 16:32:07,0.0
3472,-766,1672,-1463,-341,181,2024-01-29 16:32:07,0.0
2895,-1315,74,-1539,-1055,517,2024-01-29 16:32:07,0.0
5070,-1241,655,-1512,-854,320,2024-01-29 16:32:07,0.0
4346,-1279,61,-2105,-1995,15,2024-01-29 16:32:07,0.0
6082,-1377,-831,-1763,-1446,-22,2024-01-29 16:32:07,0.0
5321,-663,-972,-1041,-1079,144,2024-01-29 16:32:09,0.0
4654,-692,-836,-872,-1206,-10,2024-01-29 16:32:09,0.0
4842,-482,-1833,-526,-534,-25,2024-01-29 16:32:09,0.0
4291,-761,-1285,-530,-664,-292,2024-01-29 16:32:09,0.0
4788,-835,-1762,-231,-174,-45,2024-01-29 16:32:09,0.0
3797,-822,-1469,100,-718,-351,2024-01-29 16:32:09,0.0
3986,-630,-1702,406,-339,-539,2024-01-29 16:32:09,0.0
2870,-1048,-1694,448,-123,-629,2024-01-29 16:32:09,0.0
3236,-925,-1857,599,226,-409,2024-01-29 16:32:09,0.0
4458,-788,656,-13,178,-97,2024-01-29 16:32:09,0.0
4554,-363,578,32,298,-159,2024-01-29 16:32:09,0.0
4107,-584,791,-51,260,-167,2024-01-29 16:32:09,0.0
3968,-352,628,-22,-31,-77,2024-01-29 16:32:09,0.0
4111,-402,580,-57,45,-133,2024-01-29 16:32:09,0.0
4262,-227,846,-106,-14,-43,2024-01-29 16:32:09,0.0
4186,-223,768,-137,192,-116,2024-01-29 16:32:10,0.0
4333,-405,975,-127,30,-34,2024-01-29 16:32:10,0.0
4210,33,734,-138,-43,-122,2024-01-29 16:32:10,0.0
4488,-459,875,-69,-152,-25,2024-01-29 16:32:10,0.0
4185,-160,905,58,-43,-55,2024-01-29 16:32:10,0.0
4322,-194,777,-28,-45,2,2024-01-29 16:32:10,0.0
4169,-261,816,47,-93,-15,2024-01-29 16:32:10,0.0
4147,-207,904,-2,-134,8,2024-01-29 16:32:10,0.0
4458,-233,682,-3,-120,28,2024-01-29 16:32:10,0.0
4243,-315,814,-16,-137,15,2024-01-29 16:32:10,0.0
4228,-188,728,-61,-145,11,2024-01-29 16:32:10,0.0
4309,-329,614,-115,-163,20,2024-01-29 16:32:10,0.0
4318,-323,618,-73,-142,-1,2024-01-29 16:32:10,
4373,-288,561,-127,-106,3,2024-01-29 16:32:11,0.0
4276,-359,669,-106,-88,-3,2024-01-29 16:32:12,0.0
4255,-307,591,-71,-92,-2,2024-01-29 16:32:12,0.0
4328,-333,527,-81,-82,8,2024-01-29 16:32:12,0.0
4342,-366,446,-8,-26,7,2024-01-29 16:32:12,0.0
4322,-291,576,-17,44,14,2024-01-29 16:32:12,0.0
4351,-306,553,-9,42,6,2024-01-29 16:32:12,0.0
4267,-284,593,24,53,23,2024-01-29 16:32:12,0.0
4331,-274,600,23,36,15,2024-01-29 16:32:12,0.0
4325,-283,616,25,3,22,2024-01-29 16:32:12,0.0
4245,-307,672,-71,-101,25,2024-01-29 16:32:12,0.0
4313,-329,602,-51,-113,14,2024-01-29 16:32:12,0.0
4284,-302,592,-59,-82,9,2024-01-29 16:32:12,0.0
4305,-323,555,-64,-87,-15,2024-01-29 16:32:12,0.0
4269,-272,569,-31,-97,-23,2024-01-29 16:32:12,0.0
4273,-256,524,-14,-110,-37,2024-01-29 16:32:12,0.0
4376,-253,433,-13,-35,-27,2024-01-29 16:32:12,0.0
4313,-213,577,5,-52,-17,2024-01-29 16:32:12,0.0
4385,-251,557,-18,-42,-29,2024-01-29 16:32:13,0.0
4217,-148,551,-36,-43,-11,2024-01-29 16:32:13,0.0
4347,-248,518,-67,-69,10,2024-01-29 16:32:14,0.0
4281,-292,510,-52,-45,31,2024-01-29 16:32:14,0.0
4372,-317,492,-46,-3,53,2024-01-29 16:32:14,0.0
4312,-310,511,-27,17,39,2024-01-29 16:32:14,0.0
4343,-280,527,-28,30,30,2024-01-29 16:32:14,0.0
4252,-288,535,-13,17,30,2024-01-29 16:32:14,0.0
4342,-245,552,-49,-6,10,2024-01-29 16:32:14,0.0
4211,-331,505,-7,9,1,2024-01-29 16:32:14,0.0
4331,-228,428,11,43,-14,2024-01-29 16:32:16,0.0
4318,-285,714,-139,-117,-13,2024-01-29 16:32:18,0.0
4224,-285,649,-67,-84,-10,2024-01-29 16:32:18,0.0
4356,-257,614,-111,-73,-3,2024-01-29 16:32:18,0.0
4276,-307,612,-83,-67,-10,2024-01-29 16:32:18,0.0
4421,-198,494,-72,-71,-22,2024-01-29 16:32:18,0.0
4265,-289,608,-49,-83,-15,2024-01-29 16:32:18,0.0
4364,-253,568,-29,-56,1,2024-01-29 16:32:18,0.0
4246,-196,533,-62,-73,0,2024-01-29 16:32:18,0.0
4239,-45,722,-62,509,-35,2024-01-29 16:32:18,0.0
385,-449,4405,-193,5,-103,2024-01-29 16:32:18,0.0
207,-323,4013,-223,102,5,2024-01-29 16:32:18,0.0
273,-505,4370,-27,-293,-11,2024-01-29 16:32:18,0.0
201,-197,4035,-144,-1,31,2024-01-29 16:32:18,0.0
315,-325,4255,-43,-183,-42,2024-01-29 16:32:18,0.0
438,-370,4124,25,97,10,2024-01-29 16:32:18,0.0
279,-149,4336,-46,-169,23,2024-01-29 16:32:18,0.0
55,-305,4179,-30,-99,37,2024-01-29 16:32:19,0.0
441,-264,4140,-22,-69,26,2024-01-29 16:32:19,0.0
407,-194,4374,-29,-121,35,2024-01-29 16:32:19,0.0
546,-242,4077,-48,105,23,2024-01-29 16:32:19,0.0
93,-345,4403,-54,-273,-14,2024-01-29 16:32:19,0.0
444,-284,4160,-9,109,-8,2024-01-29 16:32:19,0.0
254,-223,4256,-49,-104,-18,2024-01-29 16:32:19,0.0
304,-220,4268,-34,-129,8,2024-01-29 16:32:19,0.0
343,-277,4267,23,-47,3,2024-01-29 16:32:19,0.0
448,-176,4317,-45,-78,28,2024-01-29 16:32:19,0.0
369,-296,4258,-1,-5,4,2024-01-29 16:32:19,0.0
465,-193,4148,-12,-2,33,2024-01-29 16:32:19,0.0
380,-236,4328,6,-53,7,2024-01-29 16:32:19,0.0
447,-156,4135,-4,79,38,2024-01-29 16:32:19,0.0
444,-163,4036,3,416,15,2024-01-29 16:32:19,0.0
304,-212,4291,-23,-112,6,2024-01-29 16:32:19,0.0
222,-171,4220,-14,4,4,2024-01-29 16:32:19,0.0
241,-184,4253,-24,-198,3,2024-01-29 16:32:19,0.0
331,-133,4169,-47,-52,7,2024-01-29 16:32:20,0.0
443,-180,4264,-32,-210,-18,2024-01-29 16:32:20,0.0
415,-182,4229,-51,-148,11,2024-01-29 16:32:20,0.0
410,-202,4168,-22,-40,-1,2024-01-29 16:32:20,0.0
442,-147,4171,-48,-66,20,2024-01-29 16:32:20,0.0
456,-184,4236,-45,-23,8,2024-01-29 16:32:20,0.0
484,-164,4199,-24,-38,6,2024-01-29 16:32:20,0.0
401,-165,4182,-40,-105,24,2024-01-29 16:32:20,0.0
571,-77,4290,17,-69,44,2024-01-29 16:32:20,0.0
455,-289,4341,-16,-119,6,2024-01-29 16:32:20,0.0
418,-155,4170,-16,-19,14,2024-01-29 16:32:20,0.0
372,-156,4142,-62,100,14,2024-01-29 16:32:20,0.0
344,-146,4275,-40,-57,16,2024-01-29 16:32:20,0.0
490,-209,4142,-29,17,1,2024-01-29 16:32:20,0.0
328,-70,4372,-50,-124,10,2024-01-29 16:32:20,0.0
428,-218,4147,-27,32,0,2024-01-29 16:32:20,0.0
385,-88,4264,-44,-68,8,2024-01-29 16:32:20,0.0
430,-188,4226,-43,27,-8,2024-01-29 16:32:21,0.0
379,-55,4241,-20,223,3,2024-01-29 16:32:21,0.0
352,-151,4265,-28,-81,-17,2024-01-29 16:32:21,0.0
357,-190,4198,-61,23,10,2024-01-29 16:32:21,0.0
471,-162,4064,3,-22,-5,2024-01-29 16:32:21,0.0
452,-82,4238,-37,4,16,2024-01-29 16:32:21,0.0
326,-153,4088,-19,147,-7,2024-01-29 16:32:21,0.0
299,-108,4302,-51,-78,3,2024-01-29 16:32:21,0.0
337,-177,4154,-44,37,-8,2024-01-29 16:32:21,0.0
334,-139,4229,-47,-67,10,2024-01-29 16:32:21,0.0
339,-157,4178,-51,-60,6,2024-01-29 16:32:21,0.0
272,-129,4298,-50,-58,2,2024-01-29 16:32:21,0.0
410,-165,4160,-42,35,1,2024-01-29 16:32:21,0.0
316,-141,4236,-43,-69,3,2024-01-29 16:32:21,0.0
363,-156,4226,-52,-10,3,2024-01-29 16:32:21,0.0
333,-145,4209,-43,-68,10,2024-01-29 16:32:21,0.0
335,-160,4244,-32,-47,2,2024-01-29 16:32:21,0.0
311,-134,4205,-44,-42,2,2024-01-29 16:32:21,0.0
347,-141,4138,-7,-97,7,2024-01-29 16:32:22,0.0
385,-188,4217,-44,13,9,2024-01-29 16:32:22,
321,-127,4253,-45,-62,0,2024-01-29 16:32:22,0.0
298,-164,4262,-42,-65,-2,2024-01-29 16:32:22,0.0
132,-179,4253,-72,-11,8,2024-01-29 16:32:22,0.0
308,-149,4272,-41,-138,6,2024-01-29 16:32:22,0.0
345,-209,4279,-56,-99,-2,2024-01-29 16:32:22,0.0
315,-159,4206,-52,-5,-5,2024-01-29 16:32:22,0.0
356,-159,4280,-35,-71,15,2024-01-29 16:32:22,0.0
455,-169,4166,-33,-28,49,2024-01-29 16:32:22,0.0
299,-158,4223,-37,39,-9,2024-01-29 16:32:22,0.0
440,-165,4213,-33,-91,18,2024-01-29 16:32:22,0.0
365,-181,4206,-34,-8,7,2024-01-29 16:32:22,0.0
403,-144,4186,-40,8,5,2024-01-29 16:32:22,0.0
365,-189,4224,-17,-81,17,2024-01-29 16:32:22,0.0
459,-168,4248,-53,72,17,2024-01-29 16:32:22,0.0
252,-192,4291,-47,-78,12,2024-01-29 16:32:22,0.0
279,-187,4255,-47,-40,18,2024-01-29 16:32:23,0.0
415,-169,4250,-52,32,36,2024-01-29 16:32:23,0.0
285,-149,4265,-42,-38,22,2024-01-29 16:32:23,0.0
300,-226,4240,-27,-70,4,2024-01-29 16:32:23,0.0
433,-114,4244,-11,-105,-42,2024-01-29 16:32:23,0.0
317,-190,4217,-21,16,15,2024-01-29 16:32:23,0.0
286,-142,4234,-37,35,23,2024-01-29 16:32:23,0.0
382,-173,4244,-23,-46,18,2024-01-29 16:32:23,0.0
385,-119,4165,-49,71,7,2024-01-29 16:32:23,0.0
343,-190,4198,-31,30,-3,2024-01-29 16:32:23,0.0
275,-147,4232,-33,-77,2,2024-01-29 16:32:23,0.0
347,-169,4224,-29,33,23,2024-01-29 16:32:23,0.0
270,-136,4237,-38,-12,19,2024-01-29 16:32:23,0.0
352,-166,4197,-44,62,21,2024-01-29 16:32:23,0.0
328,-129,4184,-23,-41,12,2024-01-29 16:32:23,0.0
259,-181,4164,-48,-13,13,2024-01-29 16:32:23,0.0
324,-111,4254,-37,-46,4,2024-01-29 16:32:23,0.0
296,-165,4257,-39,-49,5,2024-01-29 16:32:23,0.0
291,-147,4269,-40,-34,4,2024-01-29 16:32:24,0.0
339,-149,4176,-39,-40,3,2024-01-29 16:32:24,0.0
322,-183,4237,-41,-56,2,2024-01-29 16:32:24,0.0
327,-140,4195,-39,-25,-3,2024-01-29 16:32:24,0.0
319,-153,4226,-40,1,-1,2024-01-29 16:32:24,0.0
345,-186,4138,-27,14,2,2024-01-29 16:32:24,0.0
402,-170,4170,-58,90,8,2024-01-29 16:32:24,0.0
253,-131,4213,-27,-205,-6,2024-01-29 16:32:24,0.0
402,-162,4215,-41,-34,17,2024-01-29 16:32:24,0.0
297,-177,4216,-38,-17,7,2024-01-29 16:32:24,0.0
380,-162,4173,-44,-73,10,2024-01-29 16:32:24,0.0
347,-169,4283,-48,-103,4,2024-01-29 16:32:24,0.0
325,-167,4220,-37,-66,-2,2024-01-29 16:32:24,0.0
358,-160,4215,-34,-63,8,2024-01-29 16:32:24,0.0
368,-164,4254,-25,-58,3,2024-01-29 16:32:24,0.0
350,-164,4287,-43,-101,6,2024-01-29 16:32:24,0.0
411,-133,4245,-65,3,7,2024-01-29 16:32:24,0.0
355,-142,4183,-61,58,-14,2024-01-29 16:32:25,0.0
405,-128,4196,-54,-108,-4,2024-01-29 16:32:25,0.0
430,-165,4236,-29,-2,14,2024-01-29 16:32:25,0.0
323,-152,4233,-40,-117,3,2024-01-29 16:32:25,0.0
488,-176,4131,-60,24,15,2024-01-29 16:32:25,0.0
423,-163,4262,-53,-79,6,2024-01-29 16:32:25,0.0
365,-154,4222,-21,-89,2,2024-01-29 16:32:25,0.0
403,-149,4341,-17,-89,9,2024-01-29 16:32:25,0.0
472,-198,4287,-21,-94,19,2024-01-29 16:32:25,0.0
448,-157,4141,-34,-13,26,2024-01-29 16:32:25,0.0
507,-127,4220,-29,-87,23,2024-01-29 16:32:25,0.0
522,-155,4237,-34,-43,16,2024-01-29 16:32:25,0.0
486,-197,4218,-43,-26,26,2024-01-29 16:32:25,0.0
494,-153,4218,-38,-62,28,2024-01-29 16:32:25,0.0
485,-134,4237,-52,-8,17,2024-01-29 16:32:25,0.0
491,-163,4176,-50,68,16,2024-01-29 16:32:25,0.0
487,-189,4152,-63,83,4,2024-01-29 16:32:25,0.0
370,-145,4219,-39,-150,16,2024-01-29 16:32:25,0.0
618,-184,4158,-59,39,20,2024-01-29 16:32:26,0.0
441,-231,4274,-6,-67,10,2024-01-29 16:32:26,0.0
454,-126,4156,8,-60,39,2024-01-29 16:32:26,0.0
689,-143,4323,-127,38,12,2024-01-29 16:32:26,0.0
418,-134,4104,29,231,24,2024-01-29 16:32:26,0.0
639,-168,4045,-39,693,-45,2024-01-29 16:32:26,0.0
-621,-320,4389,39,367,84,2024-01-29 16:32:26,0.0
246,-30,4110,-42,1011,12,2024-01-29 16:32:26,0.0
46,140,4102,-123,-210,-57,2024-01-29 16:32:26,0.0
-318,-345,4589,-93,-244,-27,2024-01-29 16:32:26,0.0
-90,-180,3663,-133,803,87,2024-01-29 16:32:26,0.0
-220,56,3822,-69,386,157,2024-01-29 16:32:26,0.0
-1957,-173,4523,-2,-353,-3,2024-01-29 16:32:26,0.0
-777,-148,3673,61,-969,-84,2024-01-29 16:32:26,0.0
-296,-888,3998,-182,-1540,-74,2024-01-29 16:32:26,0.0
488,349,4321,-56,-1378,-180,2024-01-29 16:32:26,0.0
1309,-563,4994,-187,-1344,-83,2024-01-29 16:32:26,0.0
1546,-276,4372,-93,-1296,-89,2024-01-29 16:32:27,0.0
1510,-379,4448,-51,-1360,-107,2024-01-29 16:32:27,0.0
1600,-235,3900,59,-1271,-70,2024-01-29 16:32:27,0.0
1742,-142,3512,-198,-1061,35,2024-01-29 16:32:27,0.0
1941,13,3968,13,-1271,-21,2024-01-29 16:32:27,0.0
2894,-521,2513,-51,-1092,4,2024-01-29 16:32:27,0.0
2438,-310,3665,61,-1404,93,2024-01-29 16:32:27,0.0
3183,-466,3018,330,-1878,187,2024-01-29 16:32:27,0.0
3203,-44,1629,285,-2213,-6,2024-01-29 16:32:27,0.0
3438,152,2025,347,-2295,-97,2024-01-29 16:32:27,0.0
3974,-533,2395,361,-1755,-110,2024-01-29 16:32:27,0.0
4532,1530,1568,-217,-1799,-275,2024-01-29 16:32:27,0.0
3631,-1507,1525,-344,-1813,-243,2024-01-29 16:32:27,0.0
4451,-1132,324,-432,-1485,74,2024-01-29 16:32:27,0.0
4180,122,-62,-435,-1965,414,2024-01-29 16:32:27,
5110,-247,107,-232,-1425,717,2024-01-29 16:32:27,0.0
4229,642,-947,-897,-1994,401,2024-01-29 16:32:27,0.0
4576,-29,-1721,-784,-1760,501,2024-01-29 16:32:27,0.0
5369,487,-2380,-912,-1829,284,2024-01-29 16:32:28,0.0
4768,432,-2506,-679,-954,705,2024-01-29 16:32:28,0.0
3621,231,-2217,-1086,-849,558,2024-01-29 16:32:28,0.0
5142,-727,-3204,-714,-272,423,2024-01-29 16:32:28,0.0
3851,648,-2136,-425,-69,200,2024-01-29 16:32:28,0.0
3517,-207,-2726,-415,113,64,2024-01-29 16:32:28,0.0
5022,-243,-2341,-174,146,102,2024-01-29 16:32:28,0.0
3512,119,-1829,214,-48,-106,2024-01-29 16:32:28,0.0
3903,96,-2488,276,160,-136,2024-01-29 16:32:28,0.0
3721,-847,-2022,475,195,-158,2024-01-29 16:32:28,0.0
2188,178,-2067,229,275,-150,2024-01-29 16:32:28,0.0
3050,-552,-1621,-376,656,248,2024-01-29 16:32:28,0.0
3710,-444,-1700,-340,416,230,2024-01-29 16:32:28,0.0
4045,-442,-2007,-59,859,85,2024-01-29 16:32:28,0.0
3240,-522,-1424,-16,98,89,2024-01-29 16:32:28,0.0
3520,-801,-1416,610,428,145,2024-01-29 16:32:28,0.0
3044,-1027,-1535,1509,687,272,2024-01-29 16:32:33,0.0
2388,-570,-1841,1406,-477,317,2024-01-29 16:32:33,0.0
4439,-2086,-1705,1421,511,407,2024-01-29 16:32:33,0.0
4454,-506,-1006,936,383,343,2024-01-29 16:32:33,0.0
3947,-1490,-858,737,41,296,2024-01-29 16:32:33,0.0
4316,-1486,-877,502,270,331,2024-01-29 16:32:33,0.0
4100,-2329,-1018,351,53,258,2024-01-29 16:32:33,0.0
3719,-1458,-817,215,313,168,2024-01-29 16:32:33,0.0
3749,-1643,-868,189,313,225,2024-01-29 16:32:33,0.0
4272,-314,730,-8,-24,19,2024-01-29 16:32:33,0.0
4291,-218,697,-18,6,11,2024-01-29 16:32:33,0.0
4289,-253,719,-32,-35,20,2024-01-29 16:32:33,0.0
4290,-264,704,-12,-6,9,2024-01-29 16:32:33,0.0
4284,-263,697,-41,-3,6,2024-01-29 16:32:33,0.0
4308,-250,666,-47,-20,16,2024-01-29 16:32:33,0.0
4286,-253,705,-47,11,1,2024-01-29 16:32:33,0.0
4187,-283,733,-33,-4,7,2024-01-29 16:32:34,0.0
4339,-250,585,-28,81,13,2024-01-29 16:32:34,0.0
4301,-265,744,-57,-35,10,2024-01-29 16:32:34,0.0
4314,-253,770,-35,-64,22,2024-01-29 16:32:34,0.0
4222,-275,713,-38,-67,2,2024-01-29 16:32:34,0.0
4297,-267,703,-59,-81,-8,2024-01-29 16:32:34,0.0
4298,-283,709,-50,-63,1,2024-01-29 16:32:34,0.0
4322,-256,691,-54,-77,2,2024-01-29 16:32:34,0.0
4234,-233,662,-58,-67,-8,2024-01-29 16:32:34,0.0
4336,-286,679,-56,-42,-9,2024-01-29 16:32:34,0.0
4316,-234,670,-59,-82,0,2024-01-29 16:32:34,0.0
4336,-232,764,-43,-68,2,2024-01-29 16:32:34,0.0
4311,-321,681,-52,-66,-10,2024-01-29 16:32:34,0.0
4259,-223,623,-25,-38,3,2024-01-29 16:32:34,0.0
4274,-247,666,-44,-30,5,2024-01-29 16:32:34,0.0
4303,-277,660,-44,-17,-3,2024-01-29 16:32:34,0.0
4338,-221,612,-15,-58,8,2024-01-29 16:32:34,0.0
4269,-235,602,-34,1,7,2024-01-29 16:32:35,0.0
4350,-244,667,-21,-13,7,2024-01-29 16:32:35,0.0
4298,-231,632,-21,7,6,2024-01-29 16:32:35,0.0
4304,-215,694,-25,-1,10,2024-01-29 16:32:35,0.0
4198,-233,670,-8,20,-1,2024-01-29 16:32:35,0.0
4358,-213,565,0,25,21,2024-01-29 16:32:35,0.0
4243,-203,688,-29,-1,12,2024-01-29 16:32:35,0.0
4306,-244,668,-28,-31,16,2024-01-29 16:32:35,0.0
4216,-220,703,-32,-17,17,2024-01-29 16:32:35,0.0
4281,-268,674,-37,-1,11,2024-01-29 16:32:35,0.0
4295,-259,646,-26,-6,6,2024-01-29 16:32:35,0.0
4317,-249,692,-25,-14,8,2024-01-29 16:32:35,0.0
4240,-213,686,-30,-8,29,2024-01-29 16:32:35,0.0
4265,-288,731,-25,5,11,2024-01-29 16:32:35,0.0
4302,-239,760,-36,-48,12,2024-01-29 16:32:35,0.0
4249,-252,658,-19,11,7,2024-01-29 16:32:35,0.0
4355,-254,618,-1,69,7,2024-01-29 16:32:35,0.0
4271,-215,794,-52,-1,12,2024-01-29 16:32:35,0.0
4231,-246,757,-33,-11,6,2024-01-29 16:32:36,0.0
4304,-242,749,-42,-22,4,2024-01-29 16:32:36,0.0
4273,-208,686,-39,-10,-1,2024-01-29 16:32:36,0.0
4257,-231,719,-51,15,2,2024-01-29 16:32:36,0.0
4283,-221,802,-57,-79,0,2024-01-29 16:32:36,0.0
4317,-228,726,-54,-66,4,2024-01-29 16:32:36,0.0
4246,-201,687,-73,-102,-6,2024-01-29 16:32:36,0.0
4327,-255,703,-83,-87,4,2024-01-29 16:32:36,0.0
4244,-264,733,-68,-95,-5,2024-01-29 16:32:36,0.0
4357,-217,701,-68,-65,-6,2024-01-29 16:32:36,0.0
4242,-282,661,-81,-52,-3,2024-01-29 16:32:36,0.0
4428,-218,656,-51,-28,1,2024-01-29 16:32:36,0.0
4326,-235,687,-48,-44,12,2024-01-29 16:32:36,0.0
4311,-236,570,-39,-39,6,2024-01-29 16:32:36,0.0
4300,-228,551,-26,-33,5,2024-01-29 16:32:36,0.0
4297,-198,413,-25,-27,-14,2024-01-29 16:32:36,0.0
4261,-174,409,-37,47,7,2024-01-29 16:32:36,0.0
3966,21,249,-123,11,-16,2024-01-29 16:32:37,0.0
3765,-150,242,-61,22,-47,2024-01-29 16:32:37,0.0
3581,-120,335,-112,116,-49,2024-01-29 16:32:37,0.0
3147,-7,292,-139,232,-108,2024-01-29 16:32:37,0.0
3326,-31,268,-209,270,-73,2024-01-29 16:32:37,0.0
3060,-373,864,-123,637,54,2024-01-29 16:32:37,0.0
5463,225,540,6,983,-61,2024-01-29 16:32:37,0.0
3891,-351,1010,-253,881,22,2024-01-29 16:32:37,0.0
4836,-268,1140,-63,1225,-50,2024-01-29 16:32:37,0.0
3874,-293,1411,-169,1062,78,2024-01-29 16:32:37,0.0
4299,-548,1331,-68,1310,-37,2024-01-29 16:32:37,0.0
3477,102,1601,-27,1080,103,2024-01-29 16:32:37,0.0
3729,-443,1617,-67,1466,2,2024-01-29 16:32:37,
3399,-190,1478,-42,1239,148,2024-01-29 16:32:37,0.0
3005,-328,1586,-148,1769,87,2024-01-29 16:32:37,0.0
2753,62,1498,-107,1855,169,2024-01-29 16:32:37,0.0
2404,-513,1582,-48,2312,130,2024-01-29 16:32:37,0.0
1822,-171,686,-35,2975,177,2024-01-29 16:32:37,0.0
59,369,298,-181,3435,-125,2024-01-29 16:32:38,0.0
-2629,-287,11887,-627,2400,181,2024-01-29 16:32:38,0.0
-14587,-6289,17938,-398,551,253,2024-01-29 16:32:38,0.0
-1247,2434,528,67,397,93,2024-01-29 16:32:38,0.0
2369,-521,2820,508,-195,-6,2024-01-29 16:32:38,0.0
-1559,-1234,2055,-336,893,-31,2024-01-29 16:32:38,0.0
-1262,262,3037,182,-1239,91,2024-01-29 16:32:38,0.0
1655,472,4020,-521,-1068,-20,2024-01-29 16:32:38,0.0
441,-566,5030,-244,-489,49,2024-01-29 16:32:38,0.0
-86,-347,4596,-239,-624,54,2024-01-29 16:32:38,0.0
985,-388,3924,-387,245,-128,2024-01-29 16:32:38,0.0
-134,-1503,3931,-148,-140,-42,2024-01-29 16:32:38,0.0
165,-808,4237,-98,-382,28,2024-01-29 16:32:38,0.0
323,-668,4211,6,-80,-45,2024-01-29 16:32:38,0.0
405,-699,4226,-17,-116,-34,2024-01-29 16:32:38,0.0
454,-586,3874,-2,194,7,2024-01-29 16:32:38,0.0
652,-774,4309,53,-154,44,2024-01-29 16:32:38,0.0
213,-465,4311,-31,-81,38,2024-01-29 16:32:39,0.0
333,-655,4030,-6,-159,26,2024-01-29 16:32:39,0.0
463,-570,4209,89,-81,50,2024-01-29 16:32:39,0.0
555,-561,4150,-24,-45,47,2024-01-29 16:32:39,0.0
248,-628,4231,11,-168,51,2024-01-29 16:32:39,0.0
691,-636,4059,-58,86,62,2024-01-29 16:32:39,0.0
330,-536,4174,-18,-3,28,2024-01-29 16:32:39,0.0
466,-602,4240,-24,-17,18,2024-01-29 16:32:39,0.0
527,-489,4104,-22,97,-4,2024-01-29 16:32:39,0.0
378,-494,4258,-37,-61,3,2024-01-29 16:32:39,0.0
502,-580,3973,-52,129,14,2024-01-29 16:32:39,0.0
375,-616,4214,-42,-51,3,2024-01-29 16:32:39,0.0
387,-568,4202,-50,-38,-3,2024-01-29 16:32:39,0.0
460,-536,4159,-59,-44,-8,2024-01-29 16:32:39,0.0
570,-556,4147,-33,-24,-5,2024-01-29 16:32:39,0.0
300,-536,4231,-39,-134,3,2024-01-29 16:32:39,0.0
531,-585,4107,-42,54,11,2024-01-29 16:32:39,0.0
320,-531,4262,-27,64,10,2024-01-29 16:32:39,0.0
462,-599,4267,-57,-60,0,2024-01-29 16:32:40,0.0
350,-590,4065,-63,81,4,2024-01-29 16:32:40,0.0
392,-522,4248,-9,6,9,2024-01-29 16:32:40,0.0
441,-589,4090,-21,95,-15,2024-01-29 16:32:40,0.0
337,-579,4269,-29,-29,-6,2024-01-29 16:32:40,0.0
341,-522,4166,-62,-76,3,2024-01-29 16:32:40,0.0
335,-509,4219,-62,-36,-10,2024-01-29 16:32:40,0.0
357,-591,4175,-30,-36,-9,2024-01-29 16:32:40,0.0
420,-536,4168,-56,-6,3,2024-01-29 16:32:40,0.0
302,-571,4232,0,-80,1,2024-01-29 16:32:40,0.0
425,-570,4108,-32,7,1,2024-01-29 16:32:40,0.0
383,-508,4231,0,-95,-6,2024-01-29 16:32:40,0.0
387,-580,4096,-24,93,-2,2024-01-29 16:32:40,0.0
392,-554,4143,-44,55,-18,2024-01-29 16:32:40,0.0
430,-560,4104,-31,22,-17,2024-01-29 16:32:40,0.0
350,-521,4220,-2,-109,-20,2024-01-29 16:32:40,0.0
384,-514,4171,-27,-101,-21,2024-01-29 16:32:40,0.0
499,-583,4147,-3,-7,-29,2024-01-29 16:32:41,0.0
364,-510,4280,-3,-110,-15,2024-01-29 16:32:41,0.0
380,-476,4259,-6,-78,-2,2024-01-29 16:32:41,0.0
496,-500,4242,-16,-52,-7,2024-01-29 16:32:41,0.0
445,-509,4308,-29,-213,31,2024-01-29 16:32:41,0.0
544,-472,4175,-59,-19,23,2024-01-29 16:32:41,0.0
417,-497,4203,-74,-94,25,2024-01-29 16:32:41,0.0
526,-485,4231,-52,-64,27,2024-01-29 16:32:41,0.0
403,-457,4214,-65,-120,8,2024-01-29 16:32:41,0.0
454,-527,4153,-53,-45,19,2024-01-29 16:32:41,0.0
509,-509,4226,-66,-25,18,2024-01-29 16:32:41,0.0
493,-546,4207,-45,-39,19,2024-01-29 16:32:41,0.0
482,-468,4219,-85,-22,12,2024-01-29 16:32:41,0.0
544,-550,4128,-58,-7,9,2024-01-29 16:32:41,0.0
506,-522,4237,-30,-105,21,2024-01-29 16:32:41,0.0
571,-581,4198,-27,-15,5,2024-01-29 16:32:41,0.0
472,-457,4247,-41,-33,11,2024-01-29 16:32:41,0.0
534,-556,4161,-62,-52,9,2024-01-29 16:32:41,0.0
529,-560,4183,-20,-50,23,2024-01-29 16:32:42,0.0
555,-525,4181,-24,-24,27,2024-01-29 16:32:42,0.0
557,-519,4158,-51,-46,13,2024-01-29 16:32:42,0.0
604,-586,4103,-6,13,15,2024-01-29 16:32:42,0.0
624,-551,4080,-45,107,18,2024-01-29 16:32:42,0.0
554,-517,4182,-37,-136,2,2024-01-29 16:32:42,0.0
541,-558,4242,-26,-28,9,2024-01-29 16:32:42,0.0
521,-505,4117,-53,-17,14,2024-01-29 16:32:42,0.0
615,-551,4125,-24,21,8,2024-01-29 16:32:42,0.0
496,-522,4211,-43,-122,5,2024-01-29 16:32:42,0.0
474,-528,4239,-37,-50,0,2024-01-29 16:32:42,0.0
589,-489,4155,-22,12,11,2024-01-29 16:32:42,0.0
525,-551,4186,-31,-51,12,2024-01-29 16:32:42,0.0
537,-530,4216,-17,-66,12,2024-01-29 16:32:42,0.0
471,-473,4190,-65,-1,7,2024-01-29 16:32:42,0.0
428,-543,4309,-6,-177,-5,2024-01-29 16:32:42,0.0
504,-486,4151,-52,22,-4,2024-01-29 16:32:42,0.0
527,-557,4159,-36,23,7,2024-01-29 16:32:43,0.0
459,-487,4291,-38,-139,1,2024-01-29 16:32:43,0.0
517,-502,4214,-47,15,4,2024-01-29 16:32:43,0.0
517,-561,4184,-32,-9,1,2024-01-29 16:32:43,0.0
531,-499,4174,-6,-72,5,2024-01-29 16:32:43,0.0
539,-511,4207,-26,-15,2,2024-01-29 16:32:43,0.0
543,-504,4209,6,-33,5,2024-01-29 16:32:43,0.0
541,-488,4185,-19,-50,2,2024-01-29 16:32:43,
538,-500,4163,-10,-29,-2,2024-01-29 16:32:43,0.0
557,-475,4176,-8,-12,1,2024-01-29 16:32:43,0.0
517,-441,4190,-6,-41,-1,2024-01-29 16:32:43,0.0
489,-467,4251,-44,-80,2,2024-01-29 16:32:43,0.0
496,-441,4245,-43,54,-7,2024-01-29 16:32:43,0.0
481,-419,4187,-55,83,-7,2024-01-29 16:32:43,0.0
501,-491,4187,-38,-92,-8,2024-01-29 16:32:43,0.0
572,-456,4164,-45,-14,10,2024-01-29 16:32:43,0.0
498,-479,4192,-66,-58,-12,2024-01-29 16:32:43,0.0
597,-481,4171,-46,-6,2,2024-01-29 16:32:43,0.0
566,-488,4166,-41,-63,7,2024-01-29 16:32:44,0.0
572,-512,4191,-27,-25,3,2024-01-29 16:32:44,0.0
576,-440,4182,-25,-94,18,2024-01-29 16:32:44,0.0
613,-458,4260,-28,-89,7,2024-01-29 16:32:44,0.0
588,-448,4211,-48,-171,38,2024-01-29 16:32:44,0.0
593,-467,4182,-67,16,27,2024-01-29 16:32:44,0.0
533,-489,4288,-45,-121,18,2024-01-29 16:32:44,0.0
588,-519,4166,-56,-83,18,2024-01-29 16:32:44,0.0
682,-492,4187,-74,-21,46,2024-01-29 16:32:44,0.0
513,-383,4224,-56,-151,23,2024-01-29 16:32:44,0.0
683,-536,4212,-50,-21,9,2024-01-29 16:32:44,0.0
677,-456,4160,-44,24,23,2024-01-29 16:32:44,0.0
661,-520,4206,-20,-64,13,2024-01-29 16:32:44,0.0
649,-366,4082,-13,-77,12,2024-01-29 16:32:44,0.0
656,-530,4323,17,-207,-9,2024-01-29 16:32:44,0.0
765,-496,4158,-38,-10,24,2024-01-29 16:32:44,0.0
689,-487,4153,-24,-19,15,2024-01-29 16:32:44,0.0
715,-458,4167,-36,-33,23,2024-01-29 16:32:45,0.0
707,-464,4104,-35,14,18,2024-01-29 16:32:45,0.0
684,-453,4195,-49,-40,12,2024-01-29 16:32:45,0.0
748,-479,4064,-38,84,17,2024-01-29 16:32:45,0.0
751,-467,4004,-52,104,14,2024-01-29 16:32:45,0.0
683,-460,4077,-40,-12,4,2024-01-29 16:32:45,0.0
700,-506,4194,-67,-8,15,2024-01-29 16:32:45,0.0
674,-511,4180,-39,-31,6,2024-01-29 16:32:45,0.0
743,-491,4119,-64,-6,6,2024-01-29 16:32:45,0.0
645,-487,4264,-36,-74,6,2024-01-29 16:32:45,0.0
659,-468,4164,-46,-21,0,2024-01-29 16:32:45,0.0
679,-459,4134,-20,21,9,2024-01-29 16:32:45,0.0
596,-475,4218,-28,-41,-4,2024-01-29 16:32:45,0.0
639,-472,4207,-16,-140,4,2024-01-29 16:32:45,0.0
644,-461,4189,-47,34,4,2024-01-29 16:32:45,0.0
520,-482,4298,-26,-77,-2,2024-01-29 16:32:45,0.0
610,-456,4186,-33,-49,2,2024-01-29 16:32:45,0.0
733,-488,4127,-52,39,4,2024-01-29 16:32:45,0.0
594,-484,4238,-36,-70,-5,2024-01-29 16:32:46,0.0
610,-456,4187,-37,36,4,2024-01-29 16:32:46,0.0
684,-448,4169,-35,-15,-7,2024-01-29 16:32:46,0.0
641,-467,4210,0,-55,5,2024-01-29 16:32:46,0.0
608,-475,4180,-5,17,9,2024-01-29 16:32:46,0.0
627,-398,4131,-33,-49,2,2024-01-29 16:32:46,0.0
615,-457,4223,-12,-52,-12,2024-01-29 16:32:46,0.0
691,-448,4210,-43,-14,0,2024-01-29 16:32:46,0.0
621,-426,4202,-43,-40,-4,2024-01-29 16:32:46,0.0
690,-440,4161,-37,-17,1,2024-01-29 16:32:46,0.0
624,-435,4236,-28,-11,5,2024-01-29 16:32:46,0.0
599,-398,4251,-53,-107,5,2024-01-29 16:32:46,0.0
646,-438,4226,-50,34,10,2024-01-29 16:32:46,0.0
634,-434,4153,-47,86,5,2024-01-29 16:32:46,0.0
612,-441,4223,-46,-189,14,2024-01-29 16:32:46,0.0
793,-453,4200,-50,-26,29,2024-01-29 16:32:46,0.0
608,-443,4195,-69,-133,26,2024-01-29 16:32:46,0.0
798,-483,4122,-66,22,20,2024-01-29 16:32:47,0.0
753,-485,4188,-63,-53,24,2024-01-29 16:32:47,0.0
729,-521,4247,-49,-26,19,2024-01-29 16:32:47,0.0
557,-573,4093,-88,208,46,2024-01-29 16:32:47,0.0
363,-622,4178,61,229,62,2024-01-29 16:32:47,0.0
749,-247,3960,-71,812,125,2024-01-29 16:32:47,0.0
852,-323,4736,-41,63,-39,2024-01-29 16:32:47,0.0
-677,-1223,4336,207,244,37,2024-01-29 16:32:47,0.0
524,374,3801,254,774,62,2024-01-29 16:32:47,0.0
162,-54,4307,23,-171,-31,2024-01-29 16:32:47,0.0
-508,-16,4446,-21,170,-102,2024-01-29 16:32:47,0.0
264,-505,4036,-216,384,-91,2024-01-29 16:32:47,0.0
-1510,-645,4398,-127,-633,-96,2024-01-29 16:32:47,0.0
-742,-343,4166,152,-1082,-22,2024-01-29 16:32:47,0.0
314,-612,3673,136,-1650,-135,2024-01-29 16:32:47,0.0
1813,208,4426,225,-2094,22,2024-01-29 16:32:47,0.0
1332,-150,4727,171,-1805,-141,2024-01-29 16:32:47,0.0
1945,-42,3411,-56,-1146,-51,2024-01-29 16:32:47,0.0
2861,-80,3468,-53,-1023,-138,2024-01-29 16:32:48,0.0
1323,201,4256,-46,-1390,-224,2024-01-29 16:32:48,0.0
2394,-157,2095,-85,-1059,-9,2024-01-29 16:32:48,0.0
2694,-46,3622,-22,-1555,15,2024-01-29 16:32:48,0.0
3180,-40,2981,108,-997,145,2024-01-29 16:32:48,0.0
3516,-192,2740,142,-995,201,2024-01-29 16:32:48,0.0
3358,-351,3450,207,-993,244,2024-01-29 16:32:48,0.0
3608,-6,2831,268,-811,318,2024-01-29 16:32:48,0.0
3578,-51,2833,286,-1081,404,2024-01-29 16:32:48,0.0
3496,395,2836,-232,-1305,247,2024-01-29 16:32:48,0.0
3808,-317,1029,-388,-1256,19,2024-01-29 16:32:48,0.0
4260,-776,1625,-612,-1388,1,2024-01-29 16:32:48,0.0
4228,-1558,837,-393,-1333,-73,2024-01-29 16:32:48,0.0
4287,-765,1061,-442,-1490,-76,2024-01-29 16:32:48,0.0
4686,-358,1147,-506,-1575,64,2024-01-29 16:32:48,0.0
4348,-391,-350,-682,-872,212,2024-01-29 16:32:48,0.0
4271,-762,-441,-571,-708,394,2024-01-29 16:32:48,0.0
4886,-474,-695,-680,-836,697,2024-01-29 16:32:49,0.0
4450,-598,-1876,-894,-1198,584,2024-01-29 16:32:49,0.0
4823,534,-1172,-894,-1802,652,2024-01-29 16:32:49,
4714,-936,-1917,-1145,-1195,856,2024-01-29 16:32:49,0.0
4409,444,-1451,-819,-1192,715,2024-01-29 16:32:49,0.0
4714,-861,-1980,-1224,147,599,2024-01-29 16:32:49,0.0
4621,-426,-2279,-719,-76,770,2024-01-29 16:32:49,0.0
4061,-1248,-1571,-621,-475,677,2024-01-29 16:32:49,0.0
4604,-251,-2819,-139,-181,377,2024-01-29 16:32:49,0.0
2543,-1331,-1367,-44,303,-213,2024-01-29 16:32:49,0.0
3385,-966,-2245,604,475,-230,2024-01-29 16:32:49,0.0
3469,-1849,-1707,441,1245,-150,2024-01-29 16:32:49,0.0
4656,-953,-2846,744,1995,-534,2024-01-29 16:32:50,0.0
3995,-1105,-493,538,268,-657,2024-01-29 16:32:50,0.0
3345,-471,-858,983,1231,-624,2024-01-29 16:32:51,0.0
2573,-727,-300,1043,321,-660,2024-01-29 16:32:51,0.0
3997,-1247,-916,922,627,-133,2024-01-29 16:32:51,0.0
2709,-1416,-827,1268,-304,-91,2024-01-29 16:32:51,0.0
3972,-1583,-95,1614,566,198,2024-01-29 16:32:51,0.0
4394,39,157,984,22,-55,2024-01-29 16:32:51,0.0
3991,-1170,165,707,357,-167,2024-01-29 16:32:51,0.0
4129,-761,590,598,-83,-148,2024-01-29 16:32:51,0.0
4649,-1067,-108,450,212,-202,2024-01-29 16:32:52,0.0
4802,-213,462,-74,46,57,2024-01-29 16:32:52,0.0
4071,-100,417,2,-202,37,2024-01-29 16:32:52,0.0
4580,-214,331,-40,19,111,2024-01-29 16:32:52,0.0
4303,-113,354,48,90,60,2024-01-29 16:32:52,0.0
4351,-354,464,96,81,151,2024-01-29 16:32:52,0.0
4315,-275,411,248,223,131,2024-01-29 16:32:52,0.0
4180,-17,589,143,153,93,2024-01-29 16:32:52,0.0
4390,-205,499,102,84,78,2024-01-29 16:32:52,0.0
4201,-194,648,76,151,62,2024-01-29 16:32:52,0.0
4306,-567,604,-6,1,98,2024-01-29 16:32:52,0.0
4374,-248,608,54,14,-13,2024-01-29 16:32:52,0.0
4216,-217,566,-101,-45,35,2024-01-29 16:32:52,0.0
4235,-324,607,16,40,-1,2024-01-29 16:32:52,0.0
4268,-160,692,-44,-30,27,2024-01-29 16:32:52,0.0
4327,-99,626,-123,-28,62,2024-01-29 16:32:52,0.0
4348,-389,542,-88,78,101,2024-01-29 16:32:52,0.0
4393,-186,556,-201,56,90,2024-01-29 16:32:52,0.0
4193,-479,703,-71,81,20,2024-01-29 16:32:53,0.0
4434,-349,719,-83,-37,-37,2024-01-29 16:32:53,0.0
4166,-359,640,33,-51,-99,2024-01-29 16:32:53,0.0
4219,-178,670,24,-153,-101,2024-01-29 16:32:53,0.0
4208,-245,607,34,-205,-131,2024-01-29 16:32:53,0.0
4370,-75,463,-66,-188,-88,2024-01-29 16:32:53,0.0
4277,-211,503,-132,-91,-17,2024-01-29 16:32:53,0.0
4374,-17,604,-209,-123,3,2024-01-29 16:32:53,0.0
4329,-326,573,-240,-148,62,2024-01-29 16:32:53,0.0
4406,-212,444,-140,-57,74,2024-01-29 16:32:53,0.0
4208,-488,523,-40,-75,48,2024-01-29 16:32:53,0.0
4211,-398,415,166,-106,-30,2024-01-29 16:32:53,0.0
4354,-236,407,52,-163,-32,2024-01-29 16:32:53,0.0
4334,-56,344,40,-43,-56,2024-01-29 16:32:53,0.0
4368,72,346,-110,-36,-15,2024-01-29 16:32:53,0.0
4358,-85,431,-188,-11,17,2024-01-29 16:32:53,0.0
4260,-199,301,-194,22,47,2024-01-29 16:32:53,0.0
4337,-331,377,-126,39,29,2024-01-29 16:32:53,0.0
4265,-266,464,-86,9,24,2024-01-29 16:32:54,0.0
4323,-286,433,0,-3,6,2024-01-29 16:32:54,0.0
4277,-214,460,34,15,15,2024-01-29 16:32:54,0.0
4348,-200,439,16,15,12,2024-01-29 16:32:54,0.0
4329,-192,432,19,4,17,2024-01-29 16:32:54,0.0
4313,-242,482,-6,47,15,2024-01-29 16:32:54,0.0
4315,-242,547,2,83,22,2024-01-29 16:32:54,0.0
4274,-112,530,-45,69,-20,2024-01-29 16:32:54,0.0
4353,-126,401,-76,46,31,2024-01-29 16:32:54,0.0
4325,-220,552,-69,15,3,2024-01-29 16:32:54,0.0
4197,-267,649,-52,-3,17,2024-01-29 16:32:54,0.0
4331,-248,529,-50,31,-7,2024-01-29 16:32:54,0.0
4355,-220,678,-68,-37,-7,2024-01-29 16:32:54,0.0
4295,-212,568,-74,-1,-4,2024-01-29 16:32:54,0.0
4348,-257,608,-18,-47,-7,2024-01-29 16:32:54,0.0
4248,-93,518,-71,-5,10,2024-01-29 16:32:54,0.0
4307,-194,558,-60,66,-1,2024-01-29 16:32:54,0.0
4318,-193,508,-55,85,23,2024-01-29 16:32:54,0.0
4281,-268,718,-65,-27,14,2024-01-29 16:32:55,0.0
4360,-190,570,-17,-39,-7,2024-01-29 16:32:55,0.0
4330,-225,659,-27,-56,12,2024-01-29 16:32:55,0.0
4289,-185,607,-10,-89,-6,2024-01-29 16:32:55,0.0
4277,-203,518,-39,-107,9,2024-01-29 16:32:55,0.0
4303,-145,470,-47,-159,14,2024-01-29 16:32:55,0.0
4334,-219,483,-69,-70,9,2024-01-29 16:32:55,0.0
4216,-140,585,-86,-58,2,2024-01-29 16:32:55,0.0
4348,-256,474,-50,-65,8,2024-01-29 16:32:55,0.0
4384,-186,488,-77,-80,0,2024-01-29 16:32:55,0.0
4200,-209,497,-62,-106,2,2024-01-29 16:32:55,0.0
4372,-254,381,-48,2,17,2024-01-29 16:32:55,0.0
4265,-206,443,-54,-47,8,2024-01-29 16:32:55,0.0
4378,-233,426,-27,-21,22,2024-01-29 16:32:55,0.0
4289,-145,489,-71,-85,4,2024-01-29 16:32:55,0.0
4275,-231,442,-37,-91,8,2024-01-29 16:32:55,0.0
4261,-212,411,-22,-87,-1,2024-01-29 16:32:55,0.0
4347,-250,309,-19,-1,-4,2024-01-29 16:32:56,0.0
4253,-120,461,-50,27,5,2024-01-29 16:32:56,0.0
4340,-194,384,-53,14,2,2024-01-29 16:32:56,0.0
4307,-178,425,-62,23,14,2024-01-29 16:32:56,0.0
4334,-199,468,-40,21,14,2024-01-29 16:32:56,0.0
4343,-215,451,-44,-13,14,2024-01-29 16:32:56,0.0
4365,-225,475,-10,-36,-9,2024-01-29 16:32:56,0.0
4307,-152,477,-31,-47,-5,2024-01-29 16:32:56,0.0
4294,-168,494,12,57,-7,2024-01-29 16:32:56,0.0
4371,-182,395,-14,88,19,2024-01-29 16:32:56,
4246,-168,492,-44,19,3,2024-01-29 16:32:56,0.0
4349,-150,510,-30,5,21,2024-01-29 16:32:56,0.0
4240,-221,583,-25,17,0,2024-01-29 16:32:56,0.0
4386,-161,528,-61,-6,10,2024-01-29 16:32:56,0.0
4403,-265,530,-22,29,3,2024-01-29 16:32:56,0.0
4273,-103,462,-51,-14,4,2024-01-29 16:32:56,0.0
4359,-225,472,-74,45,-3,2024-01-29 16:32:56,0.0
4324,-218,357,-53,49,21,2024-01-29 16:32:56,0.0
4326,-173,298,-12,186,12,2024-01-29 16:32:57,0.0
4213,-171,428,-35,89,19,2024-01-29 16:32:57,0.0
4099,-103,238,-65,99,30,2024-01-29 16:32:57,0.0
4244,-62,392,-197,270,-34,2024-01-29 16:32:57,0.0
4052,-97,702,-100,260,98,2024-01-29 16:32:57,0.0
3777,-443,363,-7,359,-30,2024-01-29 16:32:57,0.0
3702,132,379,-219,272,50,2024-01-29 16:32:57,0.0
3514,28,473,-47,445,33,2024-01-29 16:32:57,0.0
3086,-738,681,50,665,17,2024-01-29 16:32:57,0.0
3558,386,683,-140,638,15,2024-01-29 16:32:57,0.0
3662,-389,924,-110,938,53,2024-01-29 16:32:58,0.0
4341,-150,1419,-106,1378,46,2024-01-29 16:32:58,0.0
4126,-473,1522,-197,1138,111,2024-01-29 16:32:58,0.0
3715,-341,1822,-121,1264,0,2024-01-29 16:32:58,0.0
3623,-158,1121,-179,1208,179,2024-01-29 16:32:58,0.0
3712,-387,1832,-96,1132,124,2024-01-29 16:32:58,0.0
2999,-370,1472,-140,1674,133,2024-01-29 16:32:58,0.0
2975,-258,1776,-56,1926,175,2024-01-29 16:32:58,0.0
2259,-318,1036,-85,2495,231,2024-01-29 16:32:58,0.0
1195,48,641,105,3308,246,2024-01-29 16:32:58,0.0
1042,84,2121,90,4213,234,2024-01-29 16:32:58,0.0
-14128,-5658,13935,-207,2423,-380,2024-01-29 16:32:58,0.0
-4503,372,5112,1175,-3858,-473,2024-01-29 16:32:58,0.0
1099,1996,3324,586,1286,-181,2024-01-29 16:32:58,0.0
-474,-1031,1625,-295,-6,-154,2024-01-29 16:32:58,0.0
-2648,703,2805,506,-291,100,2024-01-29 16:32:58,0.0
1472,413,3994,-87,-282,168,2024-01-29 16:32:58,0.0
1325,38,5219,-103,-167,250,2024-01-29 16:32:58,0.0
-744,347,3857,-52,-13,-89,2024-01-29 16:32:58,0.0
304,-24,3903,-284,-615,-134,2024-01-29 16:32:58,0.0
60,-426,4190,-24,29,18,2024-01-29 16:32:58,0.0
-236,129,4532,-170,-100,-30,2024-01-29 16:32:58,0.0
-196,145,4185,-111,-275,-59,2024-01-29 16:32:58,0.0
-73,-108,4120,-8,-134,-10,2024-01-29 16:32:58,0.0
11,135,4418,-140,-153,24,2024-01-29 16:32:59,0.0
139,-24,4241,-95,18,-34,2024-01-29 16:32:59,0.0
-38,-238,4386,-88,-110,20,2024-01-29 16:32:59,0.0
252,-197,4204,-21,-30,16,2024-01-29 16:32:59,0.0
54,-55,4191,-49,-83,33,2024-01-29 16:32:59,0.0
177,-108,4208,10,-76,5,2024-01-29 16:32:59,0.0
167,167,4235,-30,-57,40,2024-01-29 16:32:59,0.0
180,-121,4190,6,-38,-5,2024-01-29 16:32:59,0.0
151,68,4285,-42,-111,31,2024-01-29 16:32:59,0.0
200,-80,4230,6,-25,7,2024-01-29 16:32:59,0.0
185,65,4215,-38,-107,26,2024-01-29 16:32:59,0.0
264,-45,4042,-50,28,19,2024-01-29 16:32:59,0.0
100,-11,4483,-52,-211,6,2024-01-29 16:32:59,0.0
83,-5,4123,-3,-3,12,2024-01-29 16:32:59,0.0
249,-67,4133,-49,-59,7,2024-01-29 16:32:59,0.0
205,33,4222,-46,-83,10,2024-01-29 16:32:59,0.0
333,-55,4263,-33,-90,-11,2024-01-29 16:32:59,0.0
243,-16,4208,-30,-196,-7,2024-01-29 16:33:00,0.0
272,-17,4205,-59,-240,-23,2024-01-29 16:33:00,0.0
344,-9,4207,-50,-128,5,2024-01-29 16:33:00,0.0
352,-12,4214,-37,-24,0,2024-01-29 16:33:00,0.0
412,-73,4255,-10,-28,14,2024-01-29 16:33:00,0.0
499,-38,4069,-26,176,15,2024-01-29 16:33:00,0.0
415,-9,4245,-37,-114,8,2024-01-29 16:33:00,0.0
359,-34,4258,-31,6,18,2024-01-29 16:33:00,0.0
303,4,4232,-41,-92,8,2024-01-29 16:33:00,0.0
426,20,4163,-36,16,20,2024-01-29 16:33:00,0.0
365,2,4174,-40,-54,4,2024-01-29 16:33:00,0.0
389,38,4236,-56,-29,11,2024-01-29 16:33:00,0.0
361,-55,4246,-18,-32,6,2024-01-29 16:33:00,0.0
395,-29,4229,-38,-24,12,2024-01-29 16:33:00,0.0
356,-5,4210,-32,-42,12,2024-01-29 16:33:00,0.0
365,-24,4242,-15,-48,10,2024-01-29 16:33:00,0.0
485,44,4017,-19,85,0,2024-01-29 16:33:00,0.0
393,52,4353,-51,-157,7,2024-01-29 16:33:00,0.0
294,-11,4300,-71,1,4,2024-01-29 16:33:01,0.0
361,-19,4189,-63,-68,-2,2024-01-29 16:33:01,0.0
420,-23,4182,-67,2,5,2024-01-29 16:33:01,0.0
444,-77,4325,-46,-47,0,2024-01-29 16:33:01,0.0
355,-39,4143,-45,-24,13,2024-01-29 16:33:01,0.0
402,-77,4184,-32,-59,0,2024-01-29 16:33:01,0.0
412,-15,4283,-48,-7,13,2024-01-29 16:33:01,0.0
359,-15,4217,-28,-15,11,2024-01-29 16:33:01,0.0
385,-23,4152,-39,-35,11,2024-01-29 16:33:01,0.0
376,-53,4275,-45,-76,4,2024-01-29 16:33:01,0.0
536,-9,4104,-14,75,14,2024-01-29 16:33:01,0.0
252,-21,4350,-53,-143,12,2024-01-29 16:33:01,0.0
356,-49,4183,-42,42,10,2024-01-29 16:33:01,0.0
341,-35,4223,-41,-101,6,2024-01-29 16:33:01,0.0
404,-32,4256,-47,-7,6,2024-01-29 16:33:01,0.0
391,-49,4246,-19,-30,4,2024-01-29 16:33:01,0.0
412,-4,4160,-57,-27,8,2024-01-29 16:33:01,0.0
367,-66,4257,-34,-26,6,2024-01-29 16:33:02,0.0
374,-35,4180,-46,-21,11,2024-01-29 16:33:02,0.0
387,-44,4252,-51,-28,-3,2024-01-29 16:33:02,0.0
431,-16,4260,-48,-27,8,2024-01-29 16:33:02,0.0
350,-64,4247,-46,-49,3,2024-01-29 16:33:02,0.0
439,-40,4305,-34,-146,17,2024-01-29 16:33:02,
373,-105,4183,-59,131,3,2024-01-29 16:33:02,0.0
420,-9,4290,-29,-126,11,2024-01-29 16:33:02,0.0
310,-36,4212,-54,26,15,2024-01-29 16:33:02,0.0
381,-89,4208,-45,-91,4,2024-01-29 16:33:02,0.0
422,-1,4183,-44,-15,29,2024-01-29 16:33:02,0.0
450,-31,4236,-52,29,2,2024-01-29 16:33:02,0.0
333,-104,4143,-29,30,11,2024-01-29 16:33:02,0.0
409,-41,4231,-53,-29,17,2024-01-29 16:33:02,0.0
329,-50,4236,-38,10,4,2024-01-29 16:33:02,0.0
391,-57,4234,-21,19,15,2024-01-29 16:33:02,0.0
362,-67,4175,-45,14,20,2024-01-29 16:33:02,0.0
372,-53,4136,-27,42,8,2024-01-29 16:33:02,0.0
408,-33,4243,-18,43,18,2024-01-29 16:33:03,0.0
326,-85,4177,-37,36,-1,2024-01-29 16:33:03,0.0
286,-16,4305,-31,-15,21,2024-01-29 16:33:03,0.0
313,46,4123,-59,181,0,2024-01-29 16:33:03,0.0
207,-130,4302,-32,24,-3,2024-01-29 16:33:03,0.0
262,-41,4191,-31,50,7,2024-01-29 16:33:03,0.0
171,-94,4234,-38,-43,8,2024-01-29 16:33:03,0.0
195,-87,4188,-19,-2,9,2024-01-29 16:33:03,0.0
151,-10,4215,-55,95,10,2024-01-29 16:33:03,0.0
222,-10,4285,-31,-23,5,2024-01-29 16:33:03,0.0
220,-79,4114,-36,206,12,2024-01-29 16:33:03,0.0
175,-22,4247,-18,-21,-2,2024-01-29 16:33:03,0.0
71,-7,4166,-16,152,17,2024-01-29 16:33:03,0.0
62,-10,4280,-13,36,-13,2024-01-29 16:33:03,0.0
56,19,4256,-22,14,12,2024-01-29 16:33:03,0.0
79,-38,4171,-6,119,-7,2024-01-29 16:33:03,0.0
-6,-29,4249,-42,-44,11,2024-01-29 16:33:03,0.0
4,2,4193,-26,86,-1,2024-01-29 16:33:04,0.0
-35,-9,4170,-17,24,-1,2024-01-29 16:33:04,0.0
11,-36,4162,9,48,5,2024-01-29 16:33:04,0.0
-120,-104,4182,-64,-36,6,2024-01-29 16:33:04,0.0
34,80,4328,-45,34,39,2024-01-29 16:33:04,0.0
-131,55,4215,-54,-60,-16,2024-01-29 16:33:04,0.0
-99,42,4283,-65,-127,-7,2024-01-29 16:33:04,0.0
-7,23,4213,-35,-50,5,2024-01-29 16:33:04,0.0
-40,-33,4313,-61,-192,9,2024-01-29 16:33:04,0.0
70,-12,4278,-62,-142,11,2024-01-29 16:33:04,0.0
52,-38,4252,-36,-70,13,2024-01-29 16:33:04,0.0
101,-17,4190,-38,-122,26,2024-01-29 16:33:04,0.0
122,-13,4207,-17,-97,20,2024-01-29 16:33:04,0.0
76,-10,4260,-46,-95,27,2024-01-29 16:33:04,0.0
182,-17,4197,-7,-63,31,2024-01-29 16:33:04,0.0
68,23,4170,-56,66,27,2024-01-29 16:33:04,0.0
84,11,4289,-45,-140,14,2024-01-29 16:33:04,0.0
103,-33,4286,-36,-112,15,2024-01-29 16:33:04,0.0
166,16,4193,-14,49,18,2024-01-29 16:33:05,0.0
191,-15,4312,-86,51,55,2024-01-29 16:33:05,0.0
82,40,4218,3,98,18,2024-01-29 16:33:05,0.0
-49,10,4237,-40,-43,17,2024-01-29 16:33:05,0.0
60,35,4227,-25,-86,2,2024-01-29 16:33:05,0.0
154,8,4132,-23,-27,3,2024-01-29 16:33:05,0.0
93,-32,4228,-39,-27,13,2024-01-29 16:33:05,0.0
110,-9,4219,1,-78,32,2024-01-29 16:33:05,0.0
25,127,4159,-40,-2,17,2024-01-29 16:33:05,0.0
174,-20,4159,-23,-129,0,2024-01-29 16:33:05,0.0
73,32,4190,-67,-6,12,2024-01-29 16:33:05,0.0
141,-2,4185,-59,-78,17,2024-01-29 16:33:05,0.0
124,-21,4267,-49,-150,-3,2024-01-29 16:33:05,0.0
189,-7,4286,-65,-55,23,2024-01-29 16:33:05,0.0
96,45,4170,-62,11,9,2024-01-29 16:33:05,0.0
130,34,4208,-40,-51,6,2024-01-29 16:33:05,0.0
169,-6,4141,-30,-4,9,2024-01-29 16:33:05,0.0
178,-44,4280,-58,-75,8,2024-01-29 16:33:06,0.0
181,-37,4233,-12,-112,20,2024-01-29 16:33:06,0.0
155,55,4156,-73,147,12,2024-01-29 16:33:06,0.0
-23,30,4296,-40,-227,-17,2024-01-29 16:33:06,0.0
174,-44,4248,-29,40,7,2024-01-29 16:33:06,0.0
161,-8,4251,-47,-3,3,2024-01-29 16:33:06,0.0
87,-26,4231,-44,-20,6,2024-01-29 16:33:06,0.0
118,-3,4224,-40,-1,-2,2024-01-29 16:33:06,0.0
170,-8,4236,-36,14,-9,2024-01-29 16:33:06,0.0
125,6,4204,-18,-33,5,2024-01-29 16:33:06,0.0
111,-11,4239,-35,27,-6,2024-01-29 16:33:06,0.0
113,23,4211,-21,-55,8,2024-01-29 16:33:06,0.0
141,0,4234,-27,42,-1,2024-01-29 16:33:06,0.0
105,-19,4271,-23,-60,-5,2024-01-29 16:33:06,0.0
217,80,4186,-42,250,7,2024-01-29 16:33:06,0.0
-175,51,4301,-217,-230,23,2024-01-29 16:33:06,0.0
68,-16,3843,-268,530,34,2024-01-29 16:33:06,0.0
-96,-179,4535,-266,-423,73,2024-01-29 16:33:06,0.0
-264,36,4244,-314,360,-2,2024-01-29 16:33:07,0.0
520,47,3798,-245,107,-68,2024-01-29 16:33:07,0.0
-195,-663,4273,-314,-331,-36,2024-01-29 16:33:07,0.0
-276,-127,4528,-199,10,-16,2024-01-29 16:33:07,0.0
-44,-747,3821,-264,187,-2,2024-01-29 16:33:07,0.0
28,-204,4488,-308,-257,9,2024-01-29 16:33:07,0.0
-298,-978,4227,-254,-111,-47,2024-01-29 16:33:07,0.0
213,-221,3804,-532,198,-137,2024-01-29 16:33:07,0.0
151,-1102,4417,-410,-534,-126,2024-01-29 16:33:07,0.0
-69,-664,4314,-408,-570,-39,2024-01-29 16:33:07,0.0
50,-1182,4282,-428,-693,105,2024-01-29 16:33:07,0.0
104,-560,4585,-463,-1132,140,2024-01-29 16:33:07,0.0
637,-949,4891,-316,-1408,82,2024-01-29 16:33:07,0.0
144,-1143,4766,-360,-1386,-38,2024-01-29 16:33:07,0.0
1384,-998,3246,-180,-1151,331,2024-01-29 16:33:07,0.0
1498,-1169,3403,-54,-1662,507,2024-01-29 16:33:07,0.0
1643,-768,4164,113,-2035,899,2024-01-29 16:33:07,0.0
1917,-1140,2635,-41,-1949,1039,2024-01-29 16:33:08,
2496,-2101,2200,155,-1752,1118,2024-01-29 16:33:08,0.0
2361,-1836,2707,488,-1589,1148,2024-01-29 16:33:08,0.0
2410,-1811,2333,197,-1447,979,2024-01-29 16:33:08,0.0
2345,-2481,2535,32,-1123,657,2024-01-29 16:33:08,0.0
3204,-2093,1789,-201,-1380,516,2024-01-29 16:33:08,0.0
3608,-2707,1921,-732,-1445,344,2024-01-29 16:33:08,0.0
3544,-2855,1838,-1006,-1913,-261,2024-01-29 16:33:08,0.0
4706,-1988,1070,-1217,-1923,-594,2024-01-29 16:33:08,0.0
4745,-3615,898,-1311,-1140,-541,2024-01-29 16:33:08,0.0
3661,-1632,637,-1676,-771,-290,2024-01-29 16:33:08,0.0
4973,-3299,-1231,-1822,-230,451,2024-01-29 16:33:08,0.0
3608,-2815,-90,-1544,-794,627,2024-01-29 16:33:08,0.0
4314,-2931,-945,-1493,-458,1065,2024-01-29 16:33:08,0.0
3365,-2486,-732,-1535,223,1129,2024-01-29 16:33:08,0.0
2937,-2367,-691,-1468,109,855,2024-01-29 16:33:08,0.0
2771,-1645,-679,-873,253,563,2024-01-29 16:33:08,0.0
2816,-1285,-1269,-934,259,-145,2024-01-29 16:33:08,0.0
3133,-1644,-1150,-492,345,-573,2024-01-29 16:33:09,0.0
3315,-1666,-1473,-436,61,-998,2024-01-29 16:33:09,0.0
3452,-2147,-1843,-145,-416,-1039,2024-01-29 16:33:09,0.0
3807,-1355,-1667,-45,-178,-1037,2024-01-29 16:33:09,0.0
4237,-1384,-2119,87,614,-1043,2024-01-29 16:33:09,0.0
4881,-1556,-1363,401,734,-1047,2024-01-29 16:33:09,0.0
5430,-2155,-2001,902,689,-676,2024-01-29 16:33:09,0.0
4891,-306,-466,973,570,-951,2024-01-29 16:33:09,0.0
4225,229,-1494,27,120,-669,2024-01-29 16:33:09,0.0
5451,-795,-603,613,-384,-643,2024-01-29 16:33:09,0.0
4108,119,-1335,271,-428,-301,2024-01-29 16:33:09,0.0
3730,-1068,-1778,706,-956,-555,2024-01-29 16:33:09,0.0
4303,89,-2366,503,-306,-390,2024-01-29 16:33:09,0.0
3782,-154,-1114,632,185,-282,2024-01-29 16:33:09,0.0
3617,-261,-1409,568,88,-370,2024-01-29 16:33:09,0.0
4425,181,-1499,520,75,-436,2024-01-29 16:33:09,0.0
3939,322,-1313,543,260,-424,2024-01-29 16:33:09,0.0
3575,-216,-704,755,116,-343,2024-01-29 16:33:10,0.0
3504,192,-909,677,117,-214,2024-01-29 16:33:10,0.0
3019,-326,-601,992,490,-70,2024-01-29 16:33:12,0.0
2872,111,-879,1192,178,118,2024-01-29 16:33:12,0.0
3101,-163,-804,849,369,243,2024-01-29 16:33:12,0.0
4870,23,-1417,222,84,243,2024-01-29 16:33:12,0.0
3612,-1761,-229,650,555,342,2024-01-29 16:33:12,0.0
4530,-88,-438,14,117,251,2024-01-29 16:33:12,0.0
5241,-1618,-442,-103,534,238,2024-01-29 16:33:12,0.0
4081,-753,-91,7,152,155,2024-01-29 16:33:12,0.0
4732,-743,-416,-377,200,119,2024-01-29 16:33:13,0.0
4339,-118,548,-77,-96,-12,2024-01-29 16:33:13,0.0
4210,-301,452,-28,13,5,2024-01-29 16:33:15,0.0
4393,-189,463,-3,29,-9,2024-01-29 16:33:15,0.0
4242,-123,455,-59,-7,2,2024-01-29 16:33:15,0.0
4389,-222,378,-34,45,-3,2024-01-29 16:33:15,0.0
4341,-140,530,-48,-31,9,2024-01-29 16:33:15,0.0
4355,-212,429,-36,-21,3,2024-01-29 16:33:15,0.0
4293,-149,518,-36,24,-11,2024-01-29 16:33:15,0.0
4307,-201,518,-52,-24,12,2024-01-29 16:33:15,0.0
4294,-218,348,-23,93,3,2024-01-29 16:33:15,0.0
4315,-63,380,-120,68,-21,2024-01-29 16:33:15,0.0
4250,-173,405,-129,11,-20,2024-01-29 16:33:15,0.0
4457,-188,212,-89,122,-21,2024-01-29 16:33:15,0.0
4248,-192,456,-91,-21,8,2024-01-29 16:33:15,0.0
4407,-195,383,14,-33,19,2024-01-29 16:33:15,0.0
4281,-187,497,30,37,18,2024-01-29 16:33:15,0.0
4227,-63,445,1,-22,24,2024-01-29 16:33:15,0.0
4435,-246,425,67,74,21,2024-01-29 16:33:15,0.0
4320,35,485,-23,-12,35,2024-01-29 16:33:15,0.0
4310,-236,509,24,16,9,2024-01-29 16:33:15,0.0
4338,-63,505,-29,-20,18,2024-01-29 16:33:15,0.0
4352,-178,357,-10,40,18,2024-01-29 16:33:15,0.0
4350,-142,558,-20,3,21,2024-01-29 16:33:16,0.0
4294,-133,510,-25,-34,28,2024-01-29 16:33:16,0.0
4300,-201,569,-55,-25,18,2024-01-29 16:33:16,0.0
4363,-186,557,-18,-74,30,2024-01-29 16:33:16,0.0
4322,-134,481,11,-127,20,2024-01-29 16:33:16,0.0
4299,-172,458,-56,-126,29,2024-01-29 16:33:16,0.0
4328,-101,365,-12,-47,10,2024-01-29 16:33:16,0.0
4262,-124,464,-28,-76,4,2024-01-29 16:33:16,0.0
4388,-109,325,-54,-42,4,2024-01-29 16:33:16,0.0
4333,-110,422,-78,-79,-2,2024-01-29 16:33:16,0.0
4301,-210,384,-44,-94,4,2024-01-29 16:33:16,0.0
4308,-134,378,-52,-87,7,2024-01-29 16:33:16,0.0
4356,-203,311,-32,-67,10,2024-01-29 16:33:16,0.0
4302,-161,351,-41,-45,3,2024-01-29 16:33:16,0.0
4315,-142,354,-49,-56,16,2024-01-29 16:33:16,0.0
4327,-133,338,-39,-35,5,2024-01-29 16:33:16,0.0
4292,-180,343,-41,-35,11,2024-01-29 16:33:16,0.0
4370,-113,306,-16,-57,14,2024-01-29 16:33:16,0.0
4281,-144,331,-45,-13,9,2024-01-29 16:33:17,0.0
4376,-173,296,-32,-13,13,2024-01-29 16:33:17,0.0
4324,-177,391,-34,8,10,2024-01-29 16:33:17,0.0
4360,-158,398,-27,-22,5,2024-01-29 16:33:17,0.0
4317,-172,291,-17,-26,3,2024-01-29 16:33:17,0.0
4358,-95,335,-17,-10,6,2024-01-29 16:33:17,0.0
4308,-110,372,-49,31,-1,2024-01-29 16:33:17,0.0
4278,-105,441,-68,-3,-1,2024-01-29 16:33:17,0.0
4351,-158,316,-52,-7,2,2024-01-29 16:33:17,0.0
4327,-176,406,-49,-38,-1,2024-01-29 16:33:17,0.0
4282,-142,339,-30,2,6,2024-01-29 16:33:17,0.0
4392,-224,381,-12,-21,18,2024-01-29 16:33:17,0.0
4362,-159,365,-14,59,13,2024-01-29 16:33:17,0.0
4326,-147,428,-46,-15,22,2024-01-29 16:33:17,0.0
4353,-142,260,-66,45,8,2024-01-29 16:33:17,
4437,-128,304,-71,16,19,2024-01-29 16:33:17,0.0
4372,-114,268,-124,8,-1,2024-01-29 16:33:17,0.0
4421,-177,279,-88,43,-9,2024-01-29 16:33:18,0.0
4244,-69,385,-120,80,-11,2024-01-29 16:33:18,0.0
4178,-100,355,-135,103,4,2024-01-29 16:33:18,0.0
4285,-170,257,-79,153,21,2024-01-29 16:33:18,0.0
4034,-123,254,-80,249,8,2024-01-29 16:33:18,0.0
4197,-26,475,-194,341,11,2024-01-29 16:33:18,0.0
3748,-148,545,-93,505,61,2024-01-29 16:33:18,0.0
3893,-72,503,-27,319,114,2024-01-29 16:33:18,0.0
3256,-280,372,160,707,8,2024-01-29 16:33:18,0.0
3841,219,824,-185,712,151,2024-01-29 16:33:18,0.0
3695,-604,605,135,899,116,2024-01-29 16:33:18,0.0
3696,177,1095,-29,1174,-65,2024-01-29 16:33:18,0.0
4282,-319,1265,-145,1286,131,2024-01-29 16:33:18,0.0
3374,-822,1524,-10,1258,-17,2024-01-29 16:33:18,0.0
4002,-66,1386,-35,1515,118,2024-01-29 16:33:18,0.0
3142,-429,1557,-133,1244,118,2024-01-29 16:33:18,0.0
3430,-320,1616,-105,1842,149,2024-01-29 16:33:18,0.0
2846,-470,1701,56,1647,158,2024-01-29 16:33:18,0.0
2612,-376,1778,-9,2094,185,2024-01-29 16:33:19,0.0
2161,-321,1091,-18,2597,216,2024-01-29 16:33:19,0.0
1503,-199,-195,122,2952,176,2024-01-29 16:33:19,0.0
414,-383,842,323,3541,243,2024-01-29 16:33:19,0.0
-9892,27,23864,-73,1047,81,2024-01-29 16:33:19,0.0
-15522,-2054,17694,820,-4817,52,2024-01-29 16:33:19,0.0
3266,2415,2158,694,1202,-660,2024-01-29 16:33:19,0.0
-166,-5,1036,492,10,233,2024-01-29 16:33:19,0.0
-4036,907,2980,-239,-423,-31,2024-01-29 16:33:19,0.0
464,-231,2906,382,-1042,74,2024-01-29 16:33:19,0.0
2816,184,5027,-272,157,370,2024-01-29 16:33:19,0.0
-823,1066,4685,-155,200,94,2024-01-29 16:33:19,0.0
-511,-200,3790,147,-536,-150,2024-01-29 16:33:19,0.0
708,814,3966,-296,-49,-9,2024-01-29 16:33:19,0.0
-975,-211,4128,-25,-15,-29,2024-01-29 16:33:19,0.0
-109,499,4413,-190,-282,20,2024-01-29 16:33:19,0.0
-58,79,4148,-48,157,14,2024-01-29 16:33:19,0.0
-272,343,4176,-104,-176,-7,2024-01-29 16:33:20,0.0
-51,143,4186,-101,141,7,2024-01-29 16:33:20,0.0
-348,162,4313,-51,-266,-16,2024-01-29 16:33:20,0.0
29,220,4157,-67,122,41,2024-01-29 16:33:20,0.0
-118,152,4378,-50,-152,0,2024-01-29 16:33:20,0.0
-256,137,4144,48,-8,39,2024-01-29 16:33:20,0.0
-232,168,4254,-86,-19,15,2024-01-29 16:33:20,0.0
-138,195,4213,9,-25,30,2024-01-29 16:33:20,0.0
-55,362,4233,-64,14,17,2024-01-29 16:33:20,0.0
-274,131,4190,13,-69,20,2024-01-29 16:33:20,0.0
-110,285,4236,-8,-28,26,2024-01-29 16:33:20,0.0
-205,228,4182,-57,-74,18,2024-01-29 16:33:20,0.0
-51,244,4067,57,-138,6,2024-01-29 16:33:20,0.0
56,236,4304,-10,87,6,2024-01-29 16:33:20,0.0
-319,301,4049,31,4,17,2024-01-29 16:33:20,0.0
-127,258,4346,-54,-225,9,2024-01-29 16:33:20,0.0
-145,320,4193,-20,-234,-14,2024-01-29 16:33:20,0.0
51,237,4096,-63,-75,-2,2024-01-29 16:33:20,0.0
87,191,4176,-28,-60,-6,2024-01-29 16:33:21,0.0
-68,253,4255,-77,-96,7,2024-01-29 16:33:21,0.0
21,168,4113,-12,-3,7,2024-01-29 16:33:21,0.0
2,302,4214,-75,-22,14,2024-01-29 16:33:21,0.0
-92,241,4196,-12,34,0,2024-01-29 16:33:21,0.0
117,333,4183,-42,13,19,2024-01-29 16:33:21,0.0
-82,275,4201,-59,35,-4,2024-01-29 16:33:21,0.0
21,238,4213,-46,-46,17,2024-01-29 16:33:21,0.0
-2,272,4155,-64,-37,3,2024-01-29 16:33:21,0.0
1,221,4148,-57,8,4,2024-01-29 16:33:21,0.0
37,240,4139,-50,-12,12,2024-01-29 16:33:21,0.0
-88,287,4207,-33,-102,1,2024-01-29 16:33:21,0.0
1,211,4206,-38,-80,-2,2024-01-29 16:33:21,0.0
0,256,4305,-55,-57,0,2024-01-29 16:33:21,0.0
24,197,4177,-14,-56,-4,2024-01-29 16:33:21,0.0
18,243,4133,-73,77,10,2024-01-29 16:33:21,0.0
4,260,4233,-26,-107,0,2024-01-29 16:33:21,0.0
-34,193,4251,-49,-35,12,2024-01-29 16:33:22,0.0
-1,301,4165,-55,-7,15,2024-01-29 16:33:22,0.0
2,205,4236,-43,-45,1,2024-01-29 16:33:22,0.0
-37,237,4212,-24,-17,-1,2024-01-29 16:33:22,0.0
-18,249,4203,-51,-2,-1,2024-01-29 16:33:22,0.0
-39,215,4192,-40,13,-1,2024-01-29 16:33:22,0.0
-31,198,4219,6,-14,-1,2024-01-29 16:33:22,0.0
-7,250,4230,-20,-18,5,2024-01-29 16:33:22,0.0
-127,251,4245,-39,-36,-4,2024-01-29 16:33:22,0.0
-12,266,4312,-53,-38,10,2024-01-29 16:33:22,0.0
-72,292,4223,-44,24,4,2024-01-29 16:33:22,0.0
-57,226,4152,-33,-14,-12,2024-01-29 16:33:22,0.0
-52,226,4226,-37,-4,11,2024-01-29 16:33:22,0.0
-62,213,4220,-58,-55,-4,2024-01-29 16:33:22,0.0
8,262,4250,-63,4,7,2024-01-29 16:33:22,0.0
5,286,4202,-55,-47,-7,2024-01-29 16:33:22,0.0
-40,249,4209,-51,-114,8,2024-01-29 16:33:22,0.0
6,270,4242,-66,-50,18,2024-01-29 16:33:22,0.0
-35,245,4334,-39,-223,9,2024-01-29 16:33:23,0.0
40,203,4219,-52,-102,32,2024-01-29 16:33:23,0.0
-2,218,4280,-57,-112,13,2024-01-29 16:33:23,0.0
106,181,4219,-64,-62,20,2024-01-29 16:33:23,0.0
118,225,4182,-52,42,18,2024-01-29 16:33:23,0.0
86,180,4123,-26,-154,11,2024-01-29 16:33:23,0.0
155,175,4218,-65,15,15,2024-01-29 16:33:23,0.0
21,234,4287,-44,-101,9,2024-01-29 16:33:23,0.0
192,215,4155,-59,-28,10,2024-01-29 16:33:23,0.0
160,180,4187,-48,-56,7,2024-01-29 16:33:23,
100,189,4216,-30,-101,20,2024-01-29 16:33:23,0.0
151,178,4183,-41,-42,13,2024-01-29 16:33:23,0.0
141,225,4176,-28,-18,15,2024-01-29 16:33:23,0.0
147,206,4340,-34,-96,20,2024-01-29 16:33:23,0.0
218,173,4196,-38,41,21,2024-01-29 16:33:23,0.0
147,256,4160,-51,20,15,2024-01-29 16:33:23,0.0
150,218,4140,-17,-52,6,2024-01-29 16:33:23,0.0
193,193,4228,-68,-29,17,2024-01-29 16:33:24,0.0
108,187,4188,-58,-32,14,2024-01-29 16:33:24,0.0
267,192,4094,-35,58,14,2024-01-29 16:33:24,0.0
128,203,4166,-40,12,6,2024-01-29 16:33:24,0.0
151,220,4171,-36,-93,6,2024-01-29 16:33:24,0.0
165,182,4261,-20,8,7,2024-01-29 16:33:24,0.0
110,213,4149,-16,20,9,2024-01-29 16:33:24,0.0
133,195,4336,-30,-67,-1,2024-01-29 16:33:24,0.0
218,173,4138,-27,106,12,2024-01-29 16:33:24,0.0
150,256,4150,-53,86,-1,2024-01-29 16:33:24,0.0
142,201,4187,-34,-37,-1,2024-01-29 16:33:24,0.0
123,203,4215,-65,-13,11,2024-01-29 16:33:24,0.0
126,194,4216,-90,36,1,2024-01-29 16:33:24,0.0
140,189,4150,-89,15,-2,2024-01-29 16:33:24,0.0
121,151,4277,-31,-45,0,2024-01-29 16:33:24,0.0
23,202,4177,-6,-1,4,2024-01-29 16:33:24,0.0
93,189,4218,-25,-3,12,2024-01-29 16:33:24,0.0
92,175,4260,5,-26,14,2024-01-29 16:33:24,0.0
72,273,4195,0,34,7,2024-01-29 16:33:25,0.0
90,210,4138,5,29,1,2024-01-29 16:33:25,0.0
162,204,4078,7,165,5,2024-01-29 16:33:25,0.0
-67,212,4234,-40,-102,3,2024-01-29 16:33:25,0.0
4,270,4285,-31,-37,17,2024-01-29 16:33:25,0.0
33,238,4155,-14,91,3,2024-01-29 16:33:25,0.0
-16,255,4172,-28,-50,3,2024-01-29 16:33:25,0.0
42,234,4222,-28,-29,0,2024-01-29 16:33:25,0.0
-94,235,4271,-26,-17,-19,2024-01-29 16:33:25,0.0
16,268,4215,-7,-20,5,2024-01-29 16:33:25,0.0
30,254,4248,-35,-73,-1,2024-01-29 16:33:25,0.0
10,268,4195,-26,-22,9,2024-01-29 16:33:25,0.0
-80,222,4242,-50,-108,7,2024-01-29 16:33:25,0.0
63,230,4284,-50,-9,0,2024-01-29 16:33:25,0.0
-41,273,4111,-64,178,3,2024-01-29 16:33:25,0.0
-47,249,4259,-40,-105,3,2024-01-29 16:33:25,0.0
14,258,4229,-40,-63,17,2024-01-29 16:33:25,0.0
-12,280,4257,-59,-247,20,2024-01-29 16:33:26,0.0
117,218,4245,-66,-94,21,2024-01-29 16:33:26,0.0
99,257,4215,-44,-88,17,2024-01-29 16:33:26,0.0
58,254,4198,-42,-157,24,2024-01-29 16:33:26,0.0
133,261,4247,-53,-116,20,2024-01-29 16:33:26,0.0
175,244,4242,-32,-91,20,2024-01-29 16:33:26,0.0
163,247,4194,-39,-26,22,2024-01-29 16:33:26,0.0
139,247,4206,-28,-148,18,2024-01-29 16:33:26,0.0
224,257,4176,-89,17,16,2024-01-29 16:33:26,0.0
197,228,4208,-24,-139,-3,2024-01-29 16:33:26,0.0
124,244,4209,-42,-61,9,2024-01-29 16:33:26,0.0
201,205,4254,-46,-41,14,2024-01-29 16:33:26,0.0
176,226,4208,-47,-73,15,2024-01-29 16:33:26,0.0
209,234,4278,-45,-59,14,2024-01-29 16:33:26,0.0
177,272,4209,-43,-8,11,2024-01-29 16:33:26,0.0
182,223,4207,-31,-53,8,2024-01-29 16:33:26,0.0
228,206,4234,-44,-69,13,2024-01-29 16:33:26,0.0
255,227,4218,-41,7,15,2024-01-29 16:33:26,0.0
179,209,4187,-30,-30,8,2024-01-29 16:33:27,0.0
246,237,4254,-35,-82,9,2024-01-29 16:33:27,0.0
251,224,4196,-4,4,11,2024-01-29 16:33:27,0.0
206,192,4243,-4,-42,8,2024-01-29 16:33:27,0.0
221,280,4231,-33,-17,5,2024-01-29 16:33:27,0.0
258,254,4055,-58,151,13,2024-01-29 16:33:27,0.0
136,239,4243,-61,-83,0,2024-01-29 16:33:27,0.0
117,263,4169,-41,-18,8,2024-01-29 16:33:27,0.0
266,256,4175,-79,33,9,2024-01-29 16:33:27,0.0
119,235,4277,-59,-93,13,2024-01-29 16:33:27,0.0
328,224,4138,-64,71,4,2024-01-29 16:33:27,0.0
193,239,4207,-48,-61,5,2024-01-29 16:33:27,0.0
176,243,4189,-48,-18,4,2024-01-29 16:33:27,0.0
197,207,4205,-34,-21,0,2024-01-29 16:33:27,0.0
145,228,4258,-79,-35,-14,2024-01-29 16:33:27,0.0
211,183,4251,-57,-51,3,2024-01-29 16:33:27,0.0
251,202,4162,-36,64,5,2024-01-29 16:33:27,0.0
116,149,4252,-41,-129,-1,2024-01-29 16:33:28,0.0
138,208,4282,-34,-64,7,2024-01-29 16:33:28,0.0
221,206,4180,-26,47,11,2024-01-29 16:33:28,0.0
91,244,4231,-15,-68,8,2024-01-29 16:33:28,0.0
152,252,4276,-38,-67,4,2024-01-29 16:33:28,0.0
152,232,4210,-18,9,10,2024-01-29 16:33:28,0.0
199,211,4193,-3,21,7,2024-01-29 16:33:28,0.0
130,239,4247,-23,-64,5,2024-01-29 16:33:28,0.0
207,243,4219,-18,-21,11,2024-01-29 16:33:28,0.0
136,195,4261,-15,0,4,2024-01-29 16:33:28,0.0
237,269,4183,-32,42,0,2024-01-29 16:33:28,0.0
218,235,4070,-42,229,6,2024-01-29 16:33:28,0.0
63,248,4244,-20,-137,2,2024-01-29 16:33:28,0.0
114,268,4226,-45,23,14,2024-01-29 16:33:28,0.0
124,224,4216,-28,-1,2,2024-01-29 16:33:28,0.0
130,259,4180,-40,19,9,2024-01-29 16:33:28,0.0
123,193,4213,-30,-26,2,2024-01-29 16:33:28,0.0
58,268,4252,-32,-60,8,2024-01-29 16:33:28,0.0
104,277,4218,-30,-18,6,2024-01-29 16:33:29,0.0
41,247,4223,-32,-8,5,2024-01-29 16:33:29,0.0
107,251,4149,-26,-65,21,2024-01-29 16:33:29,0.0
121,230,4287,-41,-54,8,2024-01-29 16:33:29,0.0
136,253,4238,-27,-127,19,2024-01-29 16:33:29,
329,252,4095,-66,124,22,2024-01-29 16:33:29,0.0
80,216,4245,-51,-160,38,2024-01-29 16:33:29,0.0
214,183,4380,-74,-8,84,2024-01-29 16:33:29,0.0
266,186,4376,-87,248,156,2024-01-29 16:33:29,0.0
150,143,4328,-163,370,250,2024-01-29 16:33:29,0.0
136,330,4821,-433,222,414,2024-01-29 16:33:29,0.0
-351,70,3608,-1113,1265,610,2024-01-29 16:33:29,0.0
-665,-28,3088,-1680,293,681,2024-01-29 16:33:29,0.0
-1042,-1295,3664,-769,10,483,2024-01-29 16:33:29,0.0
-632,-103,3454,-270,-335,162,2024-01-29 16:33:29,0.0
-111,1539,5191,-400,-732,1,2024-01-29 16:33:29,0.0
-574,-1313,4920,-614,0,-264,2024-01-29 16:33:29,0.0
-688,-1395,3454,-672,-44,-104,2024-01-29 16:33:30,0.0
-631,-1519,4350,-555,-1016,-413,2024-01-29 16:33:30,0.0
642,-1411,3974,-803,-832,-185,2024-01-29 16:33:30,0.0
474,-1907,3559,-702,-708,-270,2024-01-29 16:33:30,0.0
666,-1871,4505,-771,-992,-309,2024-01-29 16:33:30,0.0
361,-2086,3785,-406,-1030,-267,2024-01-29 16:33:30,0.0
1058,-2094,3875,54,-922,-93,2024-01-29 16:33:30,0.0
1022,-1989,4193,186,-1314,-12,2024-01-29 16:33:30,0.0
653,-2098,3400,201,-1253,140,2024-01-29 16:33:30,0.0
1617,-933,3272,257,-942,384,2024-01-29 16:33:30,0.0
1705,-1487,4075,135,-1323,461,2024-01-29 16:33:30,0.0
1679,-877,3577,198,-1568,500,2024-01-29 16:33:30,0.0
2425,-1041,2668,-176,-1351,409,2024-01-29 16:33:30,0.0
2562,-1559,2763,-252,-1337,424,2024-01-29 16:33:30,0.0
3033,-2114,2109,-236,-1095,484,2024-01-29 16:33:30,0.0
2999,-2796,2666,-126,-1422,620,2024-01-29 16:33:30,0.0
3354,-2565,1777,-214,-1207,449,2024-01-29 16:33:31,0.0
3638,-2614,1307,-137,-1434,374,2024-01-29 16:33:31,0.0
2605,-1822,2081,-290,-1688,190,2024-01-29 16:33:31,0.0
2599,-2439,1050,-399,-1693,217,2024-01-29 16:33:31,0.0
3072,-2296,1098,-521,-1886,151,2024-01-29 16:33:31,0.0
3573,-3003,476,-1025,-1659,-112,2024-01-29 16:33:31,0.0
4150,-2874,4,-1389,-1619,-196,2024-01-29 16:33:31,0.0
4526,-3161,-352,-1597,-1125,-262,2024-01-29 16:33:31,0.0
4136,-3229,-944,-1349,-834,-8,2024-01-29 16:33:31,0.0
4102,-2502,-1849,-1571,-430,673,2024-01-29 16:33:31,0.0
3400,-3059,-1721,-1389,-239,959,2024-01-29 16:33:31,0.0
3418,-2929,-1964,-1529,-60,1074,2024-01-29 16:33:31,0.0
3097,-2785,-1561,-1388,101,760,2024-01-29 16:33:31,0.0
3440,-2320,-1716,-1089,302,392,2024-01-29 16:33:31,0.0
3191,-1602,-2014,-752,350,272,2024-01-29 16:33:31,0.0
3764,-1941,-2352,-885,684,-66,2024-01-29 16:33:31,0.0
3732,-1772,-2240,-262,949,-308,2024-01-29 16:33:31,0.0
3886,-1333,-1906,-40,1265,-679,2024-01-29 16:33:31,0.0
3994,-1844,-1875,100,1446,-1000,2024-01-29 16:33:32,0.0
3231,-1387,-1213,407,1618,-997,2024-01-29 16:33:32,0.0
2339,-1112,-626,634,973,-846,2024-01-29 16:33:32,0.0
2824,-1049,-399,580,597,-727,2024-01-29 16:33:32,0.0
2631,-982,-17,400,394,-623,2024-01-29 16:33:32,0.0
4006,-416,-608,-126,404,-547,2024-01-29 16:33:34,0.0
6577,-3127,-525,637,-603,-626,2024-01-29 16:33:34,0.0
4537,963,-948,631,-44,-384,2024-01-29 16:33:34,0.0
5799,-315,-293,90,-1020,-164,2024-01-29 16:33:34,0.0
4970,-205,-839,310,-878,-2,2024-01-29 16:33:34,0.0
5293,102,-1007,268,-855,-33,2024-01-29 16:33:34,0.0
4261,-1025,-1852,431,-962,38,2024-01-29 16:33:34,0.0
3476,-834,-2019,699,-223,-47,2024-01-29 16:33:34,0.0
4797,-119,-2130,360,-364,61,2024-01-29 16:33:34,0.0
4338,-461,-217,353,156,-127,2024-01-29 16:33:34,0.0
4300,-201,-120,475,245,-132,2024-01-29 16:33:34,0.0
4283,-107,-412,441,98,-202,2024-01-29 16:33:34,0.0
3913,31,-226,542,31,-96,2024-01-29 16:33:34,0.0
3990,309,-713,482,121,-125,2024-01-29 16:33:34,0.0
4258,135,-183,633,116,-44,2024-01-29 16:33:34,0.0
4379,371,-311,529,8,-109,2024-01-29 16:33:34,0.0
4645,454,299,381,-47,-68,2024-01-29 16:33:34,0.0
5024,423,79,236,-13,-101,2024-01-29 16:33:34,0.0
4504,-49,67,445,-204,16,2024-01-29 16:33:34,0.0
4376,258,-76,539,-62,-70,2024-01-29 16:33:34,0.0
4089,503,258,318,17,-2,2024-01-29 16:33:34,0.0
4100,148,236,558,18,51,2024-01-29 16:33:35,0.0
4049,125,92,730,127,176,2024-01-29 16:33:35,0.0
4279,228,460,773,9,232,2024-01-29 16:33:35,0.0
4398,810,124,732,73,230,2024-01-29 16:33:35,0.0
4996,-119,52,462,-11,101,2024-01-29 16:33:35,0.0
4197,285,374,435,138,134,2024-01-29 16:33:35,0.0
4375,-283,149,483,125,91,2024-01-29 16:33:35,0.0
4508,260,167,382,169,95,2024-01-29 16:33:35,0.0
4036,-221,311,291,216,73,2024-01-29 16:33:35,0.0
4275,-39,167,255,224,79,2024-01-29 16:33:35,0.0
4325,-21,249,118,115,27,2024-01-29 16:33:35,0.0
4386,-58,350,-21,129,18,2024-01-29 16:33:35,0.0
4391,-519,423,38,-38,47,2024-01-29 16:33:35,0.0
4355,-431,550,213,-98,91,2024-01-29 16:33:35,0.0
4583,-207,428,262,-89,139,2024-01-29 16:33:35,0.0
4182,-220,642,156,-67,88,2024-01-29 16:33:35,0.0
4051,-159,569,-164,-122,102,2024-01-29 16:33:35,0.0
4376,-144,328,-76,-272,86,2024-01-29 16:33:36,0.0
4293,-337,169,-280,-204,139,2024-01-29 16:33:36,0.0
4491,-189,-31,-267,-55,117,2024-01-29 16:33:36,0.0
4194,-467,209,-237,-94,111,2024-01-29 16:33:36,0.0
4229,-129,62,-274,-163,123,2024-01-29 16:33:38,0.0
4221,-523,125,-165,-241,122,2024-01-29 16:33:38,0.0
4279,-182,39,-88,-143,93,2024-01-29 16:33:38,0.0
4059,-367,19,-288,-158,121,2024-01-29 16:33:38,0.0
4149,-601,-14,-187,-81,128,2024-01-29 16:33:38,0.0
3926,-695,59,-222,157,102,2024-01-29 16:33:38,0.0
4279,-440,439,-433,18,45,2024-01-29 16:33:38,
