acceleration_x,acceleration_y,acceleration_z,gyroscope_x,gyroscope_y,gyroscope_z,timestamp,label
4276,-8,-896,-42,3,12,2024-01-29 17:03:37,0.0
4257,5,-872,-40,-2,11,2024-01-29 17:03:37,0.0
4233,-3,-853,-33,-20,7,2024-01-29 17:03:37,0.0
4244,14,-910,-38,-26,4,2024-01-29 17:03:37,0.0
4248,16,-877,-44,-28,8,2024-01-29 17:03:37,0.0
4278,-16,-881,-33,-2,6,2024-01-29 17:03:37,0.0
4263,18,-908,-40,-22,7,2024-01-29 17:03:37,0.0
4257,26,-827,-36,5,6,2024-01-29 17:03:37,0.0
4278,-17,-845,-43,-6,7,2024-01-29 17:03:37,0.0
4258,-37,-844,-35,8,14,2024-01-29 17:03:37,0.0
4269,-30,-848,-33,6,10,2024-01-29 17:03:37,0.0
4276,5,-859,-34,-13,13,2024-01-29 17:03:37,0.0
4292,24,-872,-61,-11,7,2024-01-29 17:03:37,0.0
4274,-17,-822,-65,-24,12,2024-01-29 17:03:38,0.0
4273,-45,-875,-50,-10,5,2024-01-29 17:03:38,0.0
4278,-6,-855,-50,-14,13,2024-01-29 17:03:38,0.0
4259,-36,-841,-41,-2,9,2024-01-29 17:03:38,0.0
4243,16,-829,-42,-3,20,2024-01-29 17:03:38,0.0
4248,54,-759,-76,-18,11,2024-01-29 17:03:38,0.0
4269,61,-827,-52,-41,4,2024-01-29 17:03:38,0.0
4268,17,-829,-40,-4,-8,2024-01-29 17:03:38,0.0
4257,45,-828,-31,-36,-3,2024-01-29 17:03:38,0.0
4276,-13,-771,-48,-11,2,2024-01-29 17:03:38,0.0
4241,-10,-764,-52,-37,3,2024-01-29 17:03:38,0.0
4300,-11,-771,-46,-25,0,2024-01-29 17:03:38,0.0
4270,2,-782,-19,-32,4,2024-01-29 17:03:38,0.0
4257,0,-819,12,-28,7,2024-01-29 17:03:38,0.0
4291,-19,-884,28,-51,5,2024-01-29 17:03:38,0.0
4281,63,-834,27,-35,18,2024-01-29 17:03:38,0.0
4249,18,-752,-24,-37,19,2024-01-29 17:03:38,0.0
4264,-30,-769,-40,-57,11,2024-01-29 17:03:38,0.0
4239,-25,-838,-22,-84,-2,2024-01-29 17:03:39,0.0
4311,-12,-875,-18,-58,-9,2024-01-29 17:03:39,0.0
4247,-26,-902,-9,-63,3,2024-01-29 17:03:39,0.0
4273,-17,-905,11,-85,-2,2024-01-29 17:03:39,0.0
4246,21,-884,-1,-68,13,2024-01-29 17:03:39,0.0
4248,3,-896,9,-55,18,2024-01-29 17:03:39,0.0
4248,3,-883,-7,-68,16,2024-01-29 17:03:39,0.0
4282,11,-895,-21,-68,8,2024-01-29 17:03:39,0.0
4260,-20,-900,-23,-68,9,2024-01-29 17:03:39,0.0
4256,-7,-917,-26,-50,8,2024-01-29 17:03:39,0.0
4258,2,-874,-30,-57,2,2024-01-29 17:03:39,0.0
4241,-9,-924,-29,-56,-1,2024-01-29 17:03:39,0.0
4265,14,-928,-30,-54,-2,2024-01-29 17:03:39,0.0
4268,19,-927,-38,-49,2,2024-01-29 17:03:39,0.0
4289,22,-902,-67,-14,14,2024-01-29 17:03:39,0.0
4259,-53,-884,-67,-6,17,2024-01-29 17:03:39,0.0
4218,-29,-919,-37,0,2,2024-01-29 17:03:39,0.0
4302,87,-945,-64,-14,0,2024-01-29 17:03:40,0.0
4241,-37,-959,-60,-20,13,2024-01-29 17:03:40,0.0
4221,34,-916,-67,-15,6,2024-01-29 17:03:40,0.0
4243,-11,-970,-56,-51,15,2024-01-29 17:03:40,0.0
4247,-3,-937,-52,-29,13,2024-01-29 17:03:40,0.0
4258,46,-906,-49,-23,13,2024-01-29 17:03:40,0.0
4226,3,-947,-57,-7,12,2024-01-29 17:03:40,0.0
4285,1,-912,-44,-19,14,2024-01-29 17:03:40,0.0
4243,0,-931,-53,-25,15,2024-01-29 17:03:40,0.0
4254,-2,-903,-58,-24,11,2024-01-29 17:03:40,0.0
4253,-11,-913,-57,-31,19,2024-01-29 17:03:40,0.0
4245,9,-885,-51,-22,11,2024-01-29 17:03:40,0.0
4250,-24,-968,-46,-22,15,2024-01-29 17:03:40,0.0
4262,-13,-894,-36,-35,11,2024-01-29 17:03:40,0.0
4285,-2,-937,-43,-15,11,2024-01-29 17:03:40,0.0
4262,-22,-918,-38,-25,13,2024-01-29 17:03:40,0.0
4246,6,-956,-39,-13,11,2024-01-29 17:03:40,0.0
4273,21,-929,-40,-18,10,2024-01-29 17:03:40,0.0
4263,0,-945,-53,-13,1,2024-01-29 17:03:41,0.0
4274,-16,-941,-45,-4,8,2024-01-29 17:03:41,0.0
4279,-5,-866,-44,-2,6,2024-01-29 17:03:41,0.0
4246,17,-893,-38,-13,3,2024-01-29 17:03:41,0.0
4249,20,-890,-32,-16,9,2024-01-29 17:03:41,0.0
4283,2,-915,-41,-16,8,2024-01-29 17:03:41,0.0
4256,-16,-872,-43,-10,13,2024-01-29 17:03:41,0.0
4244,5,-882,-53,-12,11,2024-01-29 17:03:41,0.0
4245,-1,-858,-46,-6,10,2024-01-29 17:03:41,0.0
4256,-21,-867,-56,-21,7,2024-01-29 17:03:41,0.0
4249,-33,-886,-43,-20,6,2024-01-29 17:03:41,0.0
4225,-3,-853,-40,-23,7,2024-01-29 17:03:41,0.0
4261,14,-837,-37,-30,5,2024-01-29 17:03:41,0.0
4265,11,-874,-32,-31,0,2024-01-29 17:03:41,0.0
4248,19,-802,-29,-36,0,2024-01-29 17:03:41,0.0
4244,-5,-942,-47,-43,-7,2024-01-29 17:03:41,0.0
4239,3,-866,-49,-38,-3,2024-01-29 17:03:41,0.0
4257,19,-885,-45,-41,-1,2024-01-29 17:03:42,0.0
4265,11,-823,-40,-21,5,2024-01-29 17:03:42,0.0
4294,31,-866,-46,2,5,2024-01-29 17:03:42,0.0
4347,56,-892,-36,125,17,2024-01-29 17:03:42,0.0
4255,11,-871,-36,115,31,2024-01-29 17:03:42,0.0
4242,4,-748,-41,41,22,2024-01-29 17:03:42,0.0
4273,-2,-721,-49,-22,17,2024-01-29 17:03:42,0.0
4283,6,-779,-57,-40,16,2024-01-29 17:03:42,0.0
4255,-10,-749,-46,-50,26,2024-01-29 17:03:42,0.0
4266,-4,-790,-49,-66,10,2024-01-29 17:03:42,0.0
4257,-11,-739,-40,-60,14,2024-01-29 17:03:42,0.0
4307,-22,-758,-31,-36,14,2024-01-29 17:03:42,0.0
4296,-11,-807,-26,-37,10,2024-01-29 17:03:42,0.0
4262,-4,-734,-34,-31,8,2024-01-29 17:03:42,0.0
4226,6,-805,-45,-62,6,2024-01-29 17:03:42,0.0
4305,-15,-839,-47,-46,4,2024-01-29 17:03:42,0.0
4282,15,-847,-36,-42,7,2024-01-29 17:03:42,
4224,3,-873,-16,-72,17,2024-01-29 17:03:42,0.0
4249,-21,-912,-19,-115,5,2024-01-29 17:03:43,0.0
4279,-28,-849,-32,-181,-12,2024-01-29 17:03:43,0.0
4286,-23,-917,-19,-118,-3,2024-01-29 17:03:43,0.0
4288,-17,-920,-10,-70,-3,2024-01-29 17:03:43,0.0
4237,21,-912,-30,-21,-8,2024-01-29 17:03:43,0.0
4250,-12,-922,-36,-3,1,2024-01-29 17:03:43,0.0
4233,-17,-899,-31,-19,8,2024-01-29 17:03:43,0.0
4211,29,-996,-38,-33,26,2024-01-29 17:03:43,0.0
4224,28,-854,-63,-97,11,2024-01-29 17:03:43,0.0
4226,26,-904,-77,-104,17,2024-01-29 17:03:43,0.0
4297,62,-936,-105,-56,27,2024-01-29 17:03:43,0.0
4248,-33,-917,-107,-31,44,2024-01-29 17:03:43,0.0
4267,-37,-948,-90,11,25,2024-01-29 17:03:43,0.0
4249,-40,-983,-61,-5,9,2024-01-29 17:03:43,0.0
4227,-15,-980,-16,2,3,2024-01-29 17:03:43,0.0
4234,-13,-976,-2,-3,4,2024-01-29 17:03:43,0.0
4269,38,-999,-8,-18,5,2024-01-29 17:03:43,0.0
4228,-6,-914,-9,-21,2,2024-01-29 17:03:44,0.0
4272,6,-948,-1,-29,6,2024-01-29 17:03:44,0.0
4229,-6,-928,11,-13,9,2024-01-29 17:03:44,0.0
4239,-10,-944,7,-33,9,2024-01-29 17:03:44,0.0
4243,76,-903,-26,-42,4,2024-01-29 17:03:44,0.0
4283,-1,-953,-35,-54,8,2024-01-29 17:03:44,0.0
4298,32,-908,-52,-15,11,2024-01-29 17:03:44,0.0
4265,24,-825,-104,12,12,2024-01-29 17:03:44,0.0
4229,-28,-788,-126,-18,18,2024-01-29 17:03:44,0.0
4259,-22,-870,-128,-11,9,2024-01-29 17:03:44,0.0
4248,9,-861,-119,-6,16,2024-01-29 17:03:44,0.0
4267,-4,-890,-114,21,23,2024-01-29 17:03:44,0.0
4233,-7,-870,-112,18,13,2024-01-29 17:03:44,0.0
4242,-5,-865,-92,-1,11,2024-01-29 17:03:44,0.0
4266,10,-882,-86,-22,6,2024-01-29 17:03:44,0.0
4258,27,-896,-65,-42,5,2024-01-29 17:03:44,0.0
4263,35,-917,-54,-35,1,2024-01-29 17:03:44,0.0
4252,31,-842,-46,-24,4,2024-01-29 17:03:44,0.0
4267,41,-869,-35,-22,3,2024-01-29 17:03:45,0.0
4291,39,-921,-30,-10,8,2024-01-29 17:03:45,0.0
4265,78,-912,-41,-9,18,2024-01-29 17:03:45,0.0
4231,54,-862,-53,-10,17,2024-01-29 17:03:45,0.0
4245,19,-835,-56,-23,18,2024-01-29 17:03:45,0.0
4241,-18,-882,-31,-45,8,2024-01-29 17:03:45,0.0
4263,16,-917,-7,-49,12,2024-01-29 17:03:45,0.0
4238,56,-864,-28,-51,8,2024-01-29 17:03:45,0.0
4228,5,-921,-34,-46,17,2024-01-29 17:03:45,0.0
4272,-14,-905,-39,-51,12,2024-01-29 17:03:45,0.0
4246,6,-904,-27,-48,9,2024-01-29 17:03:45,0.0
4283,-33,-909,1,-47,7,2024-01-29 17:03:45,0.0
4247,-13,-890,-4,-58,5,2024-01-29 17:03:45,0.0
4234,15,-900,-15,-61,12,2024-01-29 17:03:45,0.0
4260,-10,-920,-19,-45,14,2024-01-29 17:03:45,0.0
4237,30,-933,-26,-29,11,2024-01-29 17:03:45,0.0
4235,15,-933,-29,-32,7,2024-01-29 17:03:45,0.0
4256,21,-895,-25,-44,8,2024-01-29 17:03:46,0.0
4256,17,-949,-31,-40,15,2024-01-29 17:03:46,0.0
4242,22,-894,-46,-52,10,2024-01-29 17:03:46,0.0
4231,-21,-950,-50,-53,7,2024-01-29 17:03:46,0.0
4272,1,-936,-46,-53,3,2024-01-29 17:03:46,0.0
4254,1,-921,-49,-40,0,2024-01-29 17:03:46,0.0
4257,-3,-958,-43,-42,5,2024-01-29 17:03:46,0.0
4247,-3,-967,-44,-38,8,2024-01-29 17:03:46,0.0
4241,-8,-967,-42,-25,9,2024-01-29 17:03:46,0.0
4243,-2,-926,-43,-30,9,2024-01-29 17:03:46,0.0
4230,-13,-971,-33,-16,8,2024-01-29 17:03:46,0.0
4234,19,-959,-37,-20,10,2024-01-29 17:03:46,0.0
4272,35,-993,-33,-5,16,2024-01-29 17:03:46,0.0
4246,23,-964,-36,-13,9,2024-01-29 17:03:46,0.0
4268,5,-980,-58,-5,9,2024-01-29 17:03:46,0.0
4244,-13,-933,-54,-11,9,2024-01-29 17:03:46,0.0
4237,9,-935,-49,26,9,2024-01-29 17:03:46,0.0
4250,10,-904,-50,2,15,2024-01-29 17:03:46,0.0
4261,-5,-891,-39,7,15,2024-01-29 17:03:47,0.0
4230,8,-874,-36,-25,14,2024-01-29 17:03:47,0.0
4241,34,-893,-36,-29,18,2024-01-29 17:03:47,0.0
4248,17,-917,-37,-37,19,2024-01-29 17:03:47,0.0
4258,13,-877,-53,-31,17,2024-01-29 17:03:47,0.0
4256,-14,-921,-56,-34,9,2024-01-29 17:03:47,0.0
4281,2,-902,-42,-16,4,2024-01-29 17:03:47,0.0
4252,31,-913,-36,-21,3,2024-01-29 17:03:47,0.0
4290,5,-906,-28,-13,5,2024-01-29 17:03:47,0.0
4268,21,-873,-27,-19,0,2024-01-29 17:03:47,0.0
4265,18,-878,-29,-40,2,2024-01-29 17:03:47,0.0
4253,-13,-925,-32,-34,8,2024-01-29 17:03:47,0.0
4250,-3,-886,-38,-22,16,2024-01-29 17:03:47,0.0
4261,-6,-853,-40,-23,13,2024-01-29 17:03:47,0.0
4229,13,-876,-42,-30,12,2024-01-29 17:03:47,0.0
4278,8,-888,-42,-20,12,2024-01-29 17:03:47,0.0
4265,6,-912,-46,-31,7,2024-01-29 17:03:47,0.0
4274,15,-920,-33,-41,16,2024-01-29 17:03:48,0.0
4298,52,-910,-49,-55,13,2024-01-29 17:03:48,0.0
4144,65,-829,-54,-119,21,2024-01-29 17:03:48,0.0
4581,-82,-1026,38,-159,47,2024-01-29 17:03:48,0.0
4196,0,-617,62,18,-13,2024-01-29 17:03:48,0.0
4183,189,-638,-35,-118,3,2024-01-29 17:03:48,0.0
4297,-44,-674,-64,-59,-2,2024-01-29 17:03:48,0.0
4144,-88,-542,61,-71,-14,2024-01-29 17:03:48,0.0
4261,246,-577,-10,-44,-43,2024-01-29 17:03:48,0.0
4153,-156,-405,1,-175,-5,2024-01-29 17:03:48,0.0
4202,29,-486,9,-157,-96,2024-01-29 17:03:48,0.0
4775,-133,-891,113,62,-31,2024-01-29 17:03:48,
4348,325,-560,9,108,-181,2024-01-29 17:03:48,0.0
4564,269,-657,20,-55,6,2024-01-29 17:03:48,0.0
3960,387,-395,-198,-56,-3,2024-01-29 17:03:48,0.0
3908,412,-33,-299,-148,92,2024-01-29 17:03:48,0.0
3628,-94,-142,-135,-232,20,2024-01-29 17:03:48,0.0
3747,-36,-581,63,-319,-15,2024-01-29 17:03:48,0.0
2730,265,-528,129,-303,7,2024-01-29 17:03:49,0.0
2127,-256,-419,65,-741,-78,2024-01-29 17:03:49,0.0
-33,133,-1029,-246,-770,-90,2024-01-29 17:03:49,0.0
-319,-788,-806,89,-1160,-3,2024-01-29 17:03:49,0.0
7243,503,-1720,468,-2856,736,2024-01-29 17:03:49,0.0
10881,-80,-6175,-186,-3748,446,2024-01-29 17:03:49,0.0
3425,-478,-2127,-325,-4086,-258,2024-01-29 17:03:49,0.0
1013,358,631,-273,-5297,-765,2024-01-29 17:03:49,0.0
-2143,-365,-2389,314,-2569,104,2024-01-29 17:03:49,0.0
583,-3441,-7252,-91,6191,-759,2024-01-29 17:03:49,0.0
994,-226,-4137,-47,-25,43,2024-01-29 17:03:54,0.0
1174,-308,-4237,-85,-3,45,2024-01-29 17:03:54,0.0
1091,-280,-4121,-78,-12,22,2024-01-29 17:03:54,0.0
1093,-295,-4045,-51,-44,10,2024-01-29 17:03:54,0.0
1082,-316,-4136,-40,14,4,2024-01-29 17:03:54,0.0
1105,-281,-4166,-34,-17,7,2024-01-29 17:03:55,0.0
1097,-329,-4108,-3,-30,-10,2024-01-29 17:03:55,0.0
1032,-225,-4010,-69,-21,-6,2024-01-29 17:03:55,0.0
1044,-271,-4125,-85,-40,13,2024-01-29 17:03:55,0.0
1114,-253,-4158,-95,-27,15,2024-01-29 17:03:55,0.0
1077,-251,-4093,-86,7,11,2024-01-29 17:03:55,0.0
1125,-250,-4060,-31,-46,15,2024-01-29 17:03:55,0.0
1067,-245,-4090,-35,-46,-11,2024-01-29 17:03:55,0.0
1097,-248,-4076,4,-90,5,2024-01-29 17:03:55,0.0
1051,-293,-4119,5,-7,12,2024-01-29 17:03:55,0.0
1074,-297,-4171,-31,-82,-6,2024-01-29 17:03:55,0.0
1088,-299,-4153,-15,-63,-1,2024-01-29 17:03:55,0.0
1007,-292,-3897,-14,-131,22,2024-01-29 17:03:55,0.0
1138,-283,-4226,-85,-55,25,2024-01-29 17:03:55,0.0
957,-297,-4121,-115,-23,-16,2024-01-29 17:03:55,0.0
1043,-263,-4237,-67,-74,17,2024-01-29 17:03:55,0.0
967,-277,-4233,-77,-31,17,2024-01-29 17:03:55,0.0
1012,-217,-4161,-69,15,16,2024-01-29 17:03:55,0.0
994,-209,-4153,-39,9,13,2024-01-29 17:03:56,0.0
1010,-248,-4092,-22,2,5,2024-01-29 17:03:56,0.0
1060,-240,-4172,-12,-18,6,2024-01-29 17:03:56,0.0
1012,-236,-4026,-23,-34,-5,2024-01-29 17:03:56,0.0
1074,-220,-4037,-41,-69,6,2024-01-29 17:03:56,0.0
1002,-247,-4184,-31,-36,-2,2024-01-29 17:03:56,0.0
1002,-262,-4178,-26,-22,9,2024-01-29 17:03:56,0.0
1027,-271,-4099,-54,-18,2,2024-01-29 17:03:56,0.0
1029,-259,-4120,-43,6,11,2024-01-29 17:03:56,0.0
1041,-246,-4136,-49,-20,0,2024-01-29 17:03:56,0.0
1054,-250,-4120,-6,-44,1,2024-01-29 17:03:56,0.0
1013,-260,-4012,-18,-61,-2,2024-01-29 17:03:56,0.0
1007,-266,-4207,-24,-42,-11,2024-01-29 17:03:56,0.0
996,-256,-4134,-5,-21,-2,2024-01-29 17:03:56,0.0
1017,-268,-4132,-3,-18,9,2024-01-29 17:03:56,0.0
1010,-271,-4115,-29,-16,9,2024-01-29 17:03:56,0.0
1013,-291,-4129,-23,-12,14,2024-01-29 17:03:56,0.0
1020,-279,-4139,-48,-6,3,2024-01-29 17:03:57,0.0
1036,-297,-3997,-34,-31,5,2024-01-29 17:03:57,0.0
1029,-277,-4069,-8,-62,8,2024-01-29 17:03:57,0.0
1031,-287,-4092,-4,-109,-6,2024-01-29 17:03:57,0.0
959,-314,-4171,-24,-100,-10,2024-01-29 17:03:57,0.0
960,-321,-4149,-19,-55,7,2024-01-29 17:03:57,0.0
955,-319,-4090,-40,-31,8,2024-01-29 17:03:57,0.0
981,-273,-4156,-21,-79,16,2024-01-29 17:03:57,0.0
965,-306,-4152,-45,-64,14,2024-01-29 17:03:57,0.0
928,-305,-4167,-44,-47,12,2024-01-29 17:03:57,0.0
926,-310,-4151,-34,-30,5,2024-01-29 17:03:57,0.0
934,-319,-4099,-28,-65,-4,2024-01-29 17:03:57,0.0
927,-308,-4184,-31,-63,-4,2024-01-29 17:03:57,0.0
943,-305,-4105,-51,-21,12,2024-01-29 17:03:57,0.0
935,-314,-4189,-37,-12,9,2024-01-29 17:03:57,0.0
931,-293,-4165,-41,-16,15,2024-01-29 17:03:57,0.0
924,-304,-4055,-29,2,21,2024-01-29 17:03:57,0.0
976,-313,-4058,-25,-37,7,2024-01-29 17:03:57,0.0
962,-340,-4163,-39,-82,-11,2024-01-29 17:03:58,0.0
898,-331,-4173,-17,-56,1,2024-01-29 17:03:58,0.0
906,-312,-4149,-34,-35,5,2024-01-29 17:03:58,0.0
937,-333,-4159,-45,11,11,2024-01-29 17:03:58,0.0
952,-312,-4124,-56,-10,12,2024-01-29 17:03:58,0.0
956,-326,-4184,-44,-27,12,2024-01-29 17:03:58,0.0
936,-314,-4132,-47,-23,7,2024-01-29 17:03:58,0.0
925,-311,-4292,-98,-19,-3,2024-01-29 17:03:58,0.0
920,-297,-4092,-59,45,37,2024-01-29 17:03:58,0.0
933,-279,-4054,-78,40,25,2024-01-29 17:03:58,0.0
987,-290,-4092,-60,9,8,2024-01-29 17:03:58,0.0
1018,-274,-4089,-35,-57,3,2024-01-29 17:03:58,0.0
992,-247,-4156,-29,-76,-3,2024-01-29 17:03:58,0.0
938,-285,-4179,-70,-10,6,2024-01-29 17:03:58,0.0
962,-293,-4146,-11,-5,13,2024-01-29 17:03:58,0.0
984,-320,-4085,-38,11,12,2024-01-29 17:03:58,0.0
975,-283,-4188,-33,-34,0,2024-01-29 17:03:58,0.0
970,-313,-4115,-34,-41,4,2024-01-29 17:03:59,0.0
972,-336,-4100,-61,-31,4,2024-01-29 17:03:59,0.0
972,-304,-4086,-47,-52,5,2024-01-29 17:03:59,0.0
996,-291,-4108,-26,-64,1,2024-01-29 17:03:59,0.0
956,-266,-4094,-38,-46,-2,2024-01-29 17:03:59,0.0
975,-264,-4123,-28,-59,3,2024-01-29 17:03:59,0.0
962,-258,-4116,-35,-24,2,2024-01-29 17:03:59,0.0
938,-275,-4159,-36,-17,10,2024-01-29 17:03:59,0.0
965,-308,-4194,-50,-14,8,2024-01-29 17:03:59,
960,-289,-4121,-48,-33,10,2024-01-29 17:03:59,0.0
953,-275,-4144,-42,-21,9,2024-01-29 17:03:59,0.0
971,-269,-4126,-33,-24,14,2024-01-29 17:03:59,0.0
927,-229,-4230,-28,13,15,2024-01-29 17:03:59,0.0
980,-300,-4140,-21,50,24,2024-01-29 17:03:59,0.0
1030,-321,-4031,-50,-18,9,2024-01-29 17:03:59,0.0
979,-294,-4105,-37,-61,9,2024-01-29 17:03:59,0.0
939,-296,-4127,-38,-116,-4,2024-01-29 17:03:59,0.0
932,-261,-4077,-64,-74,-17,2024-01-29 17:03:59,0.0
991,-269,-4184,-13,-21,-11,2024-01-29 17:04:00,0.0
936,-220,-4225,-27,4,-5,2024-01-29 17:04:00,0.0
953,-285,-4279,0,22,14,2024-01-29 17:04:00,0.0
951,-309,-4125,-11,73,31,2024-01-29 17:04:00,0.0
1007,-319,-4106,-5,34,33,2024-01-29 17:04:00,0.0
1007,-339,-4239,11,33,38,2024-01-29 17:04:00,0.0
956,-393,-4429,103,37,55,2024-01-29 17:04:00,0.0
936,-381,-4421,87,-152,57,2024-01-29 17:04:00,0.0
913,-201,-4581,28,-131,59,2024-01-29 17:04:00,0.0
689,22,-4740,-17,-262,68,2024-01-29 17:04:00,0.0
704,-82,-4874,278,-288,102,2024-01-29 17:04:00,0.0
758,-268,-4693,620,-39,56,2024-01-29 17:04:00,0.0
409,-1099,-3052,776,133,-13,2024-01-29 17:04:00,0.0
691,-975,-3418,853,219,138,2024-01-29 17:04:00,0.0
1319,-1876,-3542,1042,516,176,2024-01-29 17:04:00,0.0
912,-1495,-4045,1142,296,143,2024-01-29 17:04:00,0.0
948,-2191,-4579,1018,173,-14,2024-01-29 17:04:00,0.0
1456,-1960,-4444,650,172,-112,2024-01-29 17:04:01,0.0
1032,-1731,-3486,214,-101,-107,2024-01-29 17:04:01,0.0
1321,-1242,-2739,-576,-316,-61,2024-01-29 17:04:01,0.0
863,-2577,-3586,-706,-479,-71,2024-01-29 17:04:01,0.0
431,-2697,-3403,-465,-427,-104,2024-01-29 17:04:01,0.0
392,-1991,-3611,-164,-668,-209,2024-01-29 17:04:01,0.0
405,-1755,-3902,-341,-341,-160,2024-01-29 17:04:01,0.0
331,-2078,-3654,-200,-182,-247,2024-01-29 17:04:01,0.0
618,-492,-3903,-446,188,-202,2024-01-29 17:04:01,0.0
997,-1108,-4208,-943,253,-266,2024-01-29 17:04:01,0.0
1376,-1024,-3983,-1109,820,-266,2024-01-29 17:04:01,0.0
1673,-401,-4221,-1129,1141,-224,2024-01-29 17:04:01,0.0
1516,-703,-3956,-1014,1150,-361,2024-01-29 17:04:01,0.0
1764,-300,-3934,-741,838,-390,2024-01-29 17:04:01,0.0
1445,-195,-4057,-1196,1073,-422,2024-01-29 17:04:01,0.0
2496,-469,-3382,-758,1057,204,2024-01-29 17:04:01,0.0
1814,-339,-3838,-385,113,307,2024-01-29 17:04:01,0.0
1489,1904,-3245,-1235,-630,99,2024-01-29 17:04:01,0.0
3551,945,-3499,-1178,-230,514,2024-01-29 17:04:02,0.0
1683,901,-3409,-1245,-841,334,2024-01-29 17:04:02,0.0
2610,878,-3776,-911,-786,746,2024-01-29 17:04:02,0.0
1310,809,-2915,-445,-639,727,2024-01-29 17:04:02,0.0
2217,544,-3834,-76,105,705,2024-01-29 17:04:02,0.0
1681,717,-3684,187,442,423,2024-01-29 17:04:02,0.0
1883,568,-3403,780,287,808,2024-01-29 17:04:02,0.0
1946,267,-3100,1207,800,635,2024-01-29 17:04:02,0.0
2194,439,-3086,1271,737,516,2024-01-29 17:04:02,0.0
3373,250,-2971,930,848,206,2024-01-29 17:04:02,0.0
3762,-63,-3381,679,1815,-242,2024-01-29 17:04:02,0.0
4113,-315,-3026,828,2394,-296,2024-01-29 17:04:02,0.0
4503,-484,-2913,718,1792,-556,2024-01-29 17:04:02,0.0
5689,-156,-2423,166,2430,-852,2024-01-29 17:04:02,0.0
6199,-409,-1795,-278,2678,-679,2024-01-29 17:04:02,0.0
4382,-92,-391,-378,1788,-787,2024-01-29 17:04:02,0.0
4493,176,-108,193,1269,-9,2024-01-29 17:04:02,0.0
3546,-1063,-831,288,-567,215,2024-01-29 17:04:03,0.0
4676,710,-277,51,252,51,2024-01-29 17:04:03,0.0
4508,-291,299,-211,-239,431,2024-01-29 17:04:03,0.0
5208,-194,118,-141,-458,140,2024-01-29 17:04:03,0.0
4845,123,-111,85,-401,309,2024-01-29 17:04:03,0.0
4046,-806,-339,161,-663,-11,2024-01-29 17:04:03,0.0
3546,-20,-779,331,-643,-115,2024-01-29 17:04:03,0.0
3438,-641,63,237,224,-105,2024-01-29 17:04:03,0.0
2377,-150,320,554,259,39,2024-01-29 17:04:03,0.0
3992,-934,-4,160,199,-10,2024-01-29 17:04:03,0.0
3735,113,-409,-130,410,-357,2024-01-29 17:04:03,0.0
5004,-371,-652,-8,-94,211,2024-01-29 17:04:03,0.0
3475,230,-458,-242,330,-183,2024-01-29 17:04:03,0.0
3779,819,-78,-169,-169,99,2024-01-29 17:04:03,0.0
5158,306,-426,-99,25,-24,2024-01-29 17:04:03,0.0
3781,933,-173,-230,235,-146,2024-01-29 17:04:03,0.0
4398,276,-37,-176,50,70,2024-01-29 17:04:03,0.0
4298,456,-21,-185,34,-27,2024-01-29 17:04:03,0.0
4380,47,97,-17,-8,-83,2024-01-29 17:04:04,0.0
4102,438,-352,-38,-223,-280,2024-01-29 17:04:04,0.0
4318,-361,-576,220,-271,110,2024-01-29 17:04:04,0.0
4186,-782,-579,400,-90,-80,2024-01-29 17:04:04,0.0
4808,402,-320,63,-36,54,2024-01-29 17:04:04,0.0
4644,-199,-82,-127,251,295,2024-01-29 17:04:04,0.0
3813,-770,16,-264,-17,161,2024-01-29 17:04:04,0.0
4369,-470,-176,-187,-91,17,2024-01-29 17:04:04,0.0
4439,-65,-310,-251,-29,28,2024-01-29 17:04:04,0.0
4166,-740,-455,-248,-67,-86,2024-01-29 17:04:04,0.0
4394,140,-826,17,-100,-77,2024-01-29 17:04:04,0.0
4028,532,-540,-220,-198,-30,2024-01-29 17:04:04,0.0
4502,742,-103,-303,-267,78,2024-01-29 17:04:04,0.0
4751,214,-196,-187,256,-82,2024-01-29 17:04:04,0.0
3747,655,35,86,94,31,2024-01-29 17:04:04,0.0
4963,114,-543,188,-254,145,2024-01-29 17:04:04,0.0
3807,140,-711,32,88,-111,2024-01-29 17:04:04,0.0
4255,-557,-408,359,-88,235,2024-01-29 17:04:05,0.0
4545,-552,-562,328,-349,72,2024-01-29 17:04:05,0.0
4545,-226,-498,243,3,121,2024-01-29 17:04:05,0.0
4048,-328,-140,15,53,21,2024-01-29 17:04:05,
4113,-480,-522,-144,-256,-34,2024-01-29 17:04:05,0.0
4588,-544,-741,111,-260,-11,2024-01-29 17:04:05,0.0
4209,11,-727,26,121,-45,2024-01-29 17:04:05,0.0
4347,139,-507,-296,-63,-19,2024-01-29 17:04:05,0.0
4340,-210,-414,-416,40,7,2024-01-29 17:04:05,0.0
4380,-120,-601,-440,-31,-45,2024-01-29 17:04:05,0.0
4248,-134,-625,-288,80,24,2024-01-29 17:04:05,0.0
4355,208,-542,-283,58,-29,2024-01-29 17:04:05,0.0
4046,-149,-550,-41,-153,26,2024-01-29 17:04:05,0.0
4460,186,-684,9,-134,-31,2024-01-29 17:04:05,0.0
4303,127,-729,-21,-132,26,2024-01-29 17:04:05,0.0
4469,-13,-553,16,-36,30,2024-01-29 17:04:05,0.0
4251,43,-451,-4,-1,-3,2024-01-29 17:04:05,0.0
4330,-127,-585,100,-91,17,2024-01-29 17:04:05,0.0
4303,-9,-642,117,-20,-15,2024-01-29 17:04:06,0.0
4248,69,-679,88,-65,12,2024-01-29 17:04:06,0.0
4335,54,-739,26,-80,5,2024-01-29 17:04:06,0.0
4252,-47,-684,12,-38,17,2024-01-29 17:04:06,0.0
4320,-29,-642,19,-63,21,2024-01-29 17:04:06,0.0
4324,-27,-678,3,-38,21,2024-01-29 17:04:06,0.0
4276,0,-637,-3,38,1,2024-01-29 17:04:06,0.0
4311,-12,-688,-52,-2,37,2024-01-29 17:04:06,0.0
4258,-76,-617,-57,50,19,2024-01-29 17:04:06,0.0
4296,-154,-677,-36,-133,81,2024-01-29 17:04:06,0.0
4359,-106,-781,-161,-4,58,2024-01-29 17:04:06,0.0
4037,-155,-648,-330,-11,42,2024-01-29 17:04:06,0.0
4446,-180,-551,-240,-127,-56,2024-01-29 17:04:06,0.0
4290,-191,-593,-181,-49,10,2024-01-29 17:04:06,0.0
4411,-338,-681,34,-39,63,2024-01-29 17:04:06,0.0
4237,-21,-543,7,59,56,2024-01-29 17:04:06,0.0
4359,-14,-522,-29,118,81,2024-01-29 17:04:06,0.0
4241,-187,-558,15,39,15,2024-01-29 17:04:07,0.0
4173,-114,-599,-11,63,-18,2024-01-29 17:04:07,0.0
4338,-270,-662,45,-9,-43,2024-01-29 17:04:07,0.0
4329,-29,-588,127,18,-36,2024-01-29 17:04:07,0.0
4300,-169,-512,52,0,-41,2024-01-29 17:04:07,0.0
4302,124,-457,-83,-49,-99,2024-01-29 17:04:07,0.0
4303,-193,-624,59,-69,26,2024-01-29 17:04:07,0.0
4373,-63,-606,-17,2,-54,2024-01-29 17:04:07,0.0
4279,-49,-560,31,-30,40,2024-01-29 17:04:07,0.0
4241,-118,-524,-10,22,-21,2024-01-29 17:04:07,0.0
4294,-56,-569,-7,-57,9,2024-01-29 17:04:07,0.0
4318,-60,-560,-27,-7,-6,2024-01-29 17:04:07,0.0
4343,-39,-547,-42,-12,14,2024-01-29 17:04:07,0.0
4331,19,-551,-80,1,2,2024-01-29 17:04:07,0.0
4275,-72,-515,-89,9,6,2024-01-29 17:04:07,0.0
4336,-79,-497,-62,6,-2,2024-01-29 17:04:07,0.0
4302,-2,-485,-32,-6,13,2024-01-29 17:04:07,0.0
4272,-87,-483,-6,5,1,2024-01-29 17:04:07,0.0
4321,-44,-487,14,-24,8,2024-01-29 17:04:08,0.0
4322,-62,-495,24,-42,1,2024-01-29 17:04:08,0.0
4295,-53,-505,28,-36,10,2024-01-29 17:04:08,0.0
4320,-42,-497,4,-34,2,2024-01-29 17:04:08,0.0
4292,-57,-530,-15,-73,3,2024-01-29 17:04:08,0.0
4338,-78,-600,-12,-43,6,2024-01-29 17:04:08,0.0
4322,-76,-473,-34,-24,-3,2024-01-29 17:04:08,0.0
4294,-51,-569,-37,-59,8,2024-01-29 17:04:08,0.0
4294,-12,-579,-46,9,-1,2024-01-29 17:04:08,0.0
4288,-30,-519,-73,-55,10,2024-01-29 17:04:08,0.0
4320,-45,-540,-89,-41,12,2024-01-29 17:04:08,0.0
4301,-53,-567,-96,-50,14,2024-01-29 17:04:08,0.0
4307,-75,-534,-103,-29,12,2024-01-29 17:04:08,0.0
4280,-77,-589,-100,-36,18,2024-01-29 17:04:08,0.0
4330,-68,-562,-89,-5,14,2024-01-29 17:04:08,0.0
4298,-70,-537,-79,-32,18,2024-01-29 17:04:08,0.0
4326,-47,-542,-68,-30,16,2024-01-29 17:04:08,0.0
4305,-56,-529,-46,4,20,2024-01-29 17:04:09,0.0
4292,-66,-476,-34,33,14,2024-01-29 17:04:09,0.0
4322,-57,-510,-44,18,13,2024-01-29 17:04:09,0.0
4329,-41,-510,-64,12,11,2024-01-29 17:04:09,0.0
4329,-88,-510,-57,24,13,2024-01-29 17:04:09,0.0
4307,-77,-446,-49,18,8,2024-01-29 17:04:09,0.0
4321,-45,-473,-65,-30,9,2024-01-29 17:04:09,0.0
4339,-62,-463,-65,10,9,2024-01-29 17:04:09,0.0
4321,-48,-503,-67,-11,14,2024-01-29 17:04:09,0.0
4324,-55,-500,-62,3,12,2024-01-29 17:04:09,0.0
4303,-57,-459,-44,7,10,2024-01-29 17:04:09,0.0
4334,-87,-478,-29,-2,20,2024-01-29 17:04:09,0.0
4298,-85,-454,5,-5,10,2024-01-29 17:04:09,0.0
4337,-76,-428,26,12,19,2024-01-29 17:04:09,0.0
4300,-77,-452,36,-60,-2,2024-01-29 17:04:09,0.0
4297,-198,-413,51,-83,34,2024-01-29 17:04:09,0.0
4391,-71,-474,-2,-105,22,2024-01-29 17:04:09,0.0
4274,-339,-344,-19,110,5,2024-01-29 17:04:09,0.0
4416,-70,-338,-32,10,1,2024-01-29 17:04:10,0.0
4321,-226,-440,-97,-13,49,2024-01-29 17:04:10,0.0
4211,-50,-410,-164,-11,-37,2024-01-29 17:04:10,0.0
4288,-152,-440,-30,-57,55,2024-01-29 17:04:10,0.0
4432,71,-345,-44,-2,-21,2024-01-29 17:04:10,0.0
4239,-34,-328,106,-16,48,2024-01-29 17:04:10,0.0
4323,563,-514,-152,-100,-50,2024-01-29 17:04:10,0.0
4342,15,-455,-235,-47,68,2024-01-29 17:04:10,0.0
4422,32,-342,-230,57,-38,2024-01-29 17:04:10,0.0
4242,-80,-563,-207,-193,30,2024-01-29 17:04:10,0.0
4376,-372,-544,-72,-7,-14,2024-01-29 17:04:10,0.0
4238,-79,-448,79,-44,4,2024-01-29 17:04:10,0.0
4332,-92,-426,101,-57,19,2024-01-29 17:04:10,0.0
4373,86,-465,-11,-58,-3,2024-01-29 17:04:10,0.0
4329,-106,-427,-49,-90,43,2024-01-29 17:04:10,0.0
4350,-185,-448,-85,-14,-15,2024-01-29 17:04:10,
4249,-73,-482,-27,-127,-4,2024-01-29 17:04:10,0.0
4378,-128,-573,12,-89,27,2024-01-29 17:04:11,0.0
4296,35,-572,-26,-40,-10,2024-01-29 17:04:11,0.0
4361,-91,-503,-30,-10,20,2024-01-29 17:04:11,0.0
4294,2,-506,-65,18,-5,2024-01-29 17:04:11,0.0
4269,-44,-509,-104,-42,9,2024-01-29 17:04:11,0.0
4319,-58,-519,-105,-28,8,2024-01-29 17:04:11,0.0
4298,-57,-513,-110,-45,4,2024-01-29 17:04:11,0.0
4287,-64,-555,-111,-42,12,2024-01-29 17:04:11,0.0
4307,-37,-546,-109,-75,18,2024-01-29 17:04:11,0.0
4335,-56,-596,-98,-53,18,2024-01-29 17:04:11,0.0
4292,-59,-545,-89,-62,18,2024-01-29 17:04:11,0.0
4308,-52,-582,-79,-41,13,2024-01-29 17:04:11,0.0
4312,-27,-610,-76,-31,8,2024-01-29 17:04:11,0.0
4276,-68,-535,-65,-32,9,2024-01-29 17:04:11,0.0
4339,-52,-543,-53,-22,10,2024-01-29 17:04:11,0.0
4319,-59,-557,-24,-18,-1,2024-01-29 17:04:11,0.0
4327,-47,-576,-29,-32,12,2024-01-29 17:04:11,0.0
4282,-29,-529,-32,-29,-3,2024-01-29 17:04:11,0.0
4309,-18,-570,-36,-49,15,2024-01-29 17:04:12,0.0
4312,-19,-603,-36,-21,3,2024-01-29 17:04:12,0.0
4311,-52,-553,-49,-12,14,2024-01-29 17:04:12,0.0
4333,-61,-571,-53,5,13,2024-01-29 17:04:12,0.0
4315,-28,-541,-50,8,22,2024-01-29 17:04:12,0.0
4320,-8,-510,-91,33,14,2024-01-29 17:04:12,0.0
4301,-47,-535,-95,2,24,2024-01-29 17:04:12,0.0
4288,-100,-527,-58,-16,10,2024-01-29 17:04:12,0.0
4335,-112,-573,-29,-18,6,2024-01-29 17:04:12,0.0
4309,-95,-516,11,-38,10,2024-01-29 17:04:12,0.0
4353,-62,-587,38,-19,8,2024-01-29 17:04:12,0.0
4304,-47,-537,38,-32,23,2024-01-29 17:04:12,0.0
4334,-74,-528,37,-33,13,2024-01-29 17:04:12,0.0
4323,-46,-454,14,-13,11,2024-01-29 17:04:12,0.0
4332,-80,-519,7,-4,6,2024-01-29 17:04:12,0.0
4308,-25,-499,-9,-25,4,2024-01-29 17:04:12,0.0
4350,-52,-467,-23,-7,11,2024-01-29 17:04:12,0.0
4304,-50,-516,-29,-3,15,2024-01-29 17:04:13,0.0
4309,-39,-470,-47,16,15,2024-01-29 17:04:13,0.0
4317,-59,-485,-49,3,12,2024-01-29 17:04:13,0.0
4296,-47,-473,-45,-9,11,2024-01-29 17:04:13,0.0
4338,-69,-496,-50,-9,12,2024-01-29 17:04:13,0.0
4315,-68,-417,-46,-22,8,2024-01-29 17:04:13,0.0
4318,-49,-468,-35,-32,6,2024-01-29 17:04:13,0.0
4357,-55,-474,-38,-42,4,2024-01-29 17:04:13,0.0
4342,-55,-492,-31,-51,0,2024-01-29 17:04:13,0.0
4328,-46,-465,-27,-51,-2,2024-01-29 17:04:13,0.0
4290,-38,-462,-47,-63,2,2024-01-29 17:04:13,0.0
4349,-41,-482,-57,-35,1,2024-01-29 17:04:13,0.0
4277,-63,-465,-53,-73,5,2024-01-29 17:04:13,0.0
4322,-33,-594,-44,-43,7,2024-01-29 17:04:13,0.0
4332,-81,-471,-58,-85,4,2024-01-29 17:04:13,0.0
4302,-52,-581,-42,-51,4,2024-01-29 17:04:13,0.0
4311,-42,-508,-40,-60,5,2024-01-29 17:04:13,0.0
4320,-26,-493,-34,-14,0,2024-01-29 17:04:14,0.0
4396,-11,-371,-44,-30,-2,2024-01-29 17:04:14,0.0
4120,-222,-456,-4,5,-9,2024-01-29 17:04:14,0.0
4501,120,-234,-7,139,17,2024-01-29 17:04:14,0.0
4037,-112,12,-67,-23,2,2024-01-29 17:04:14,0.0
4370,-17,-270,-8,-239,-3,2024-01-29 17:04:14,0.0
4164,-25,-265,7,-270,-9,2024-01-29 17:04:14,0.0
4255,60,-234,15,-289,16,2024-01-29 17:04:14,0.0
4163,33,-184,13,-321,-2,2024-01-29 17:04:14,0.0
4262,-1,-387,55,-425,-1,2024-01-29 17:04:14,0.0
4408,156,-726,61,-394,44,2024-01-29 17:04:14,0.0
4288,-129,-707,42,-401,62,2024-01-29 17:04:14,0.0
4455,-126,-791,69,-494,69,2024-01-29 17:04:14,0.0
4133,-262,-684,99,-400,-7,2024-01-29 17:04:14,0.0
3770,21,-656,119,-442,16,2024-01-29 17:04:14,0.0
3575,-87,-555,63,-467,50,2024-01-29 17:04:14,0.0
3655,-40,-522,-27,-594,51,2024-01-29 17:04:14,0.0
3898,-111,-564,-53,-523,72,2024-01-29 17:04:14,0.0
4182,-361,-153,84,-468,10,2024-01-29 17:04:15,0.0
2838,334,-72,141,-671,-148,2024-01-29 17:04:15,0.0
2471,-9,-619,27,-1387,-161,2024-01-29 17:04:15,0.0
959,588,-975,67,-1918,1,2024-01-29 17:04:15,0.0
721,-376,-2895,144,-2599,128,2024-01-29 17:04:15,0.0
-773,-578,-1564,8,-1953,-124,2024-01-29 17:04:15,0.0
1444,718,-474,-990,-5498,382,2024-01-29 17:04:15,0.0
794,-1668,-4563,1147,-6012,-146,2024-01-29 17:04:15,0.0
-1288,2049,-21257,-94,-393,144,2024-01-29 17:04:15,0.0
4871,-819,-8553,256,-42,806,2024-01-29 17:04:15,0.0
-2972,-211,-6726,-847,5750,-199,2024-01-29 17:04:15,0.0
-6222,363,959,-145,-1775,185,2024-01-29 17:04:15,0.0
1163,-413,-1824,415,-1592,40,2024-01-29 17:04:15,0.0
31,-409,-1366,112,1627,-159,2024-01-29 17:04:15,0.0
-166,628,-4135,90,-671,123,2024-01-29 17:04:15,0.0
791,-826,-4561,441,-245,78,2024-01-29 17:04:15,0.0
977,-399,-5434,150,-307,-166,2024-01-29 17:04:15,0.0
949,59,-4686,56,-307,-182,2024-01-29 17:04:15,0.0
465,-581,-3891,-61,222,-51,2024-01-29 17:04:16,0.0
643,-585,-4004,57,-3,-26,2024-01-29 17:04:16,0.0
680,-118,-4238,17,6,-27,2024-01-29 17:04:16,0.0
51,-590,-4429,-34,-16,48,2024-01-29 17:04:16,0.0
744,-421,-4256,-102,73,7,2024-01-29 17:04:16,0.0
386,-460,-4228,-97,9,59,2024-01-29 17:04:16,0.0
425,-263,-3992,-129,-70,46,2024-01-29 17:04:16,0.0
720,-359,-4239,-63,91,58,2024-01-29 17:04:16,0.0
396,-388,-4318,-83,-30,8,2024-01-29 17:04:16,0.0
463,-237,-4270,-74,47,11,2024-01-29 17:04:16,0.0
632,-347,-4216,-59,-97,12,2024-01-29 17:04:16,
530,-216,-4246,-48,11,10,2024-01-29 17:04:16,0.0
487,-239,-4052,-68,32,34,2024-01-29 17:04:16,0.0
663,-332,-4221,-71,27,25,2024-01-29 17:04:16,0.0
529,-310,-4180,-36,54,9,2024-01-29 17:04:16,0.0
728,-259,-4269,-50,76,11,2024-01-29 17:04:16,0.0
546,-273,-4073,-41,47,-1,2024-01-29 17:04:16,0.0
722,-332,-4161,-19,34,14,2024-01-29 17:04:17,0.0
633,-188,-4119,-37,-22,6,2024-01-29 17:04:17,0.0
708,-337,-4314,-27,9,8,2024-01-29 17:04:17,0.0
610,-283,-4188,-26,-7,-1,2024-01-29 17:04:17,0.0
657,-295,-4080,-17,-46,11,2024-01-29 17:04:17,0.0
757,-361,-4216,-4,32,7,2024-01-29 17:04:17,0.0
670,-294,-4095,-41,-1,0,2024-01-29 17:04:17,0.0
768,-321,-4239,-22,9,23,2024-01-29 17:04:17,0.0
667,-282,-4177,-52,-14,15,2024-01-29 17:04:17,0.0
680,-303,-4156,-47,37,15,2024-01-29 17:04:17,0.0
759,-299,-4286,-74,-23,0,2024-01-29 17:04:17,0.0
740,-381,-4249,-37,104,5,2024-01-29 17:04:17,0.0
727,-292,-4181,-30,36,10,2024-01-29 17:04:17,0.0
744,-239,-4124,-78,39,12,2024-01-29 17:04:17,0.0
848,-303,-4103,-85,-32,11,2024-01-29 17:04:17,0.0
824,-238,-4239,-57,58,18,2024-01-29 17:04:17,0.0
723,-398,-4148,-39,78,0,2024-01-29 17:04:17,0.0
835,-299,-4114,-25,25,3,2024-01-29 17:04:17,0.0
884,-270,-4134,39,56,31,2024-01-29 17:04:18,0.0
931,-275,-4108,-39,6,13,2024-01-29 17:04:18,0.0
830,-290,-4133,-32,50,10,2024-01-29 17:04:18,0.0
871,-288,-4099,-29,23,26,2024-01-29 17:04:18,0.0
843,-270,-4184,-61,-34,9,2024-01-29 17:04:18,0.0
851,-352,-4115,-55,-2,13,2024-01-29 17:04:18,0.0
990,-293,-4144,-36,-27,17,2024-01-29 17:04:18,0.0
866,-288,-4155,-40,22,-5,2024-01-29 17:04:18,0.0
934,-326,-4143,-22,-28,18,2024-01-29 17:04:18,0.0
910,-298,-4110,-15,15,-3,2024-01-29 17:04:18,0.0
933,-389,-4039,-48,-10,-14,2024-01-29 17:04:18,0.0
1005,-294,-4153,2,22,-5,2024-01-29 17:04:18,0.0
892,-317,-4110,-46,44,-7,2024-01-29 17:04:18,0.0
987,-247,-4227,-17,45,7,2024-01-29 17:04:18,0.0
1022,-225,-4268,-55,-3,24,2024-01-29 17:04:18,0.0
969,-309,-4126,-9,4,21,2024-01-29 17:04:18,0.0
1031,-364,-4067,-21,12,26,2024-01-29 17:04:18,0.0
1006,-435,-4175,19,-26,21,2024-01-29 17:04:19,0.0
925,-162,-4123,1,-4,56,2024-01-29 17:04:19,0.0
950,-400,-4071,-127,-84,28,2024-01-29 17:04:19,0.0
1027,-456,-4118,-45,-28,-7,2024-01-29 17:04:19,0.0
1013,-306,-4108,-12,-32,-2,2024-01-29 17:04:19,0.0
976,-290,-4072,-62,-64,3,2024-01-29 17:04:19,0.0
1028,-324,-4221,-45,-23,5,2024-01-29 17:04:19,0.0
916,-280,-4120,-34,-32,2,2024-01-29 17:04:19,0.0
1020,-335,-4226,-17,-45,10,2024-01-29 17:04:19,0.0
938,-319,-4078,-11,-2,-2,2024-01-29 17:04:19,0.0
955,-289,-4225,-13,-3,-5,2024-01-29 17:04:19,0.0
1027,-332,-4138,-24,17,1,2024-01-29 17:04:19,0.0
915,-401,-4072,4,-44,-7,2024-01-29 17:04:19,0.0
1048,-324,-4122,-14,-88,11,2024-01-29 17:04:19,0.0
950,-407,-4112,-29,24,-1,2024-01-29 17:04:19,0.0
993,-349,-4155,-28,-88,-4,2024-01-29 17:04:19,0.0
953,-399,-4107,-53,-43,-22,2024-01-29 17:04:19,0.0
1023,-335,-4234,-32,-22,3,2024-01-29 17:04:20,0.0
947,-377,-4117,23,-37,25,2024-01-29 17:04:20,0.0
986,-386,-4174,-9,-17,6,2024-01-29 17:04:20,0.0
989,-448,-4087,-24,-38,-7,2024-01-29 17:04:20,0.0
940,-395,-4083,-12,1,10,2024-01-29 17:04:20,0.0
1013,-430,-4009,-41,-26,13,2024-01-29 17:04:20,0.0
994,-343,-4182,-73,-30,8,2024-01-29 17:04:20,0.0
983,-381,-4172,-53,18,5,2024-01-29 17:04:20,0.0
975,-389,-4119,-39,30,12,2024-01-29 17:04:20,0.0
1024,-413,-4127,-27,-43,17,2024-01-29 17:04:20,0.0
982,-353,-4049,-50,19,-3,2024-01-29 17:04:20,0.0
1052,-419,-4094,-12,-20,4,2024-01-29 17:04:20,0.0
1048,-343,-4032,-23,-71,3,2024-01-29 17:04:20,0.0
971,-421,-4132,-55,-75,2,2024-01-29 17:04:20,0.0
997,-321,-4220,-57,-16,32,2024-01-29 17:04:20,0.0
1010,-428,-4186,-71,-6,28,2024-01-29 17:04:20,0.0
983,-377,-4117,-59,-48,9,2024-01-29 17:04:20,0.0
963,-348,-4121,-77,-79,27,2024-01-29 17:04:20,0.0
979,-330,-4073,-61,-103,33,2024-01-29 17:04:21,0.0
981,-374,-3961,-45,-141,27,2024-01-29 17:04:21,0.0
979,-337,-4114,-54,-33,15,2024-01-29 17:04:21,0.0
947,-391,-4233,-61,-38,13,2024-01-29 17:04:21,0.0
988,-347,-4152,-46,-6,23,2024-01-29 17:04:21,0.0
911,-330,-4244,-56,10,15,2024-01-29 17:04:21,0.0
887,-405,-4195,-39,-3,18,2024-01-29 17:04:21,0.0
965,-359,-4159,-17,-5,5,2024-01-29 17:04:21,0.0
942,-317,-4045,-46,-31,8,2024-01-29 17:04:21,0.0
1010,-416,-4025,-28,-29,2,2024-01-29 17:04:21,0.0
1021,-317,-4125,-44,-14,13,2024-01-29 17:04:21,0.0
886,-312,-4094,-70,-21,13,2024-01-29 17:04:21,0.0
996,-346,-4194,-56,-77,22,2024-01-29 17:04:21,0.0
931,-336,-4208,-53,-54,25,2024-01-29 17:04:21,0.0
901,-283,-4178,-69,-55,27,2024-01-29 17:04:21,0.0
913,-351,-4069,-28,-50,19,2024-01-29 17:04:21,0.0
939,-318,-4101,-60,-74,14,2024-01-29 17:04:21,0.0
923,-314,-4120,-37,-55,24,2024-01-29 17:04:22,0.0
893,-338,-4136,-48,-94,24,2024-01-29 17:04:22,0.0
914,-339,-4177,-51,-14,32,2024-01-29 17:04:22,0.0
876,-279,-4190,-68,-49,28,2024-01-29 17:04:22,0.0
893,-355,-4220,-56,-13,6,2024-01-29 17:04:22,0.0
935,-383,-4153,9,39,-26,2024-01-29 17:04:22,0.0
903,-289,-4075,57,94,-37,2024-01-29 17:04:22,
828,-331,-4027,14,9,-43,2024-01-29 17:04:22,0.0
934,-326,-4105,28,-20,10,2024-01-29 17:04:22,0.0
1030,-396,-4101,1,-38,14,2024-01-29 17:04:22,0.0
982,-405,-4183,-13,19,3,2024-01-29 17:04:22,0.0
911,-402,-4164,-40,-32,13,2024-01-29 17:04:22,0.0
990,-396,-4197,-60,9,17,2024-01-29 17:04:22,0.0
900,-350,-4166,-73,4,22,2024-01-29 17:04:22,0.0
944,-410,-4097,-60,-30,5,2024-01-29 17:04:22,0.0
1029,-338,-4095,-28,-40,1,2024-01-29 17:04:22,0.0
923,-334,-4073,-41,-31,-2,2024-01-29 17:04:22,0.0
1007,-389,-4227,-7,-35,-5,2024-01-29 17:04:22,0.0
942,-354,-4161,-34,-50,14,2024-01-29 17:04:23,0.0
1002,-429,-4185,-38,-35,5,2024-01-29 17:04:23,0.0
896,-414,-4080,-50,-48,6,2024-01-29 17:04:23,0.0
1009,-400,-4279,-16,32,17,2024-01-29 17:04:23,0.0
938,-403,-4172,-95,67,13,2024-01-29 17:04:23,0.0
950,-438,-4080,-76,-58,31,2024-01-29 17:04:23,0.0
993,-330,-4021,-111,11,19,2024-01-29 17:04:23,0.0
994,-304,-3991,-61,-52,11,2024-01-29 17:04:23,0.0
1046,-335,-4146,-81,-21,-17,2024-01-29 17:04:23,0.0
949,-332,-4134,-17,-40,-10,2024-01-29 17:04:23,0.0
959,-306,-4175,17,3,-9,2024-01-29 17:04:23,0.0
970,-310,-4138,-9,-21,6,2024-01-29 17:04:23,0.0
976,-330,-4167,-20,-13,14,2024-01-29 17:04:23,0.0
928,-325,-4035,-22,-39,15,2024-01-29 17:04:23,0.0
1018,-373,-4075,-39,-86,4,2024-01-29 17:04:23,0.0
975,-411,-4151,1,-98,8,2024-01-29 17:04:23,0.0
981,-308,-4155,-59,-67,11,2024-01-29 17:04:23,0.0
911,-349,-4125,-110,-120,11,2024-01-29 17:04:24,0.0
976,-420,-4063,-79,-119,17,2024-01-29 17:04:24,0.0
875,-334,-4237,-78,-37,2,2024-01-29 17:04:24,0.0
861,-324,-4259,-79,-73,27,2024-01-29 17:04:24,0.0
891,-279,-4091,-52,-30,11,2024-01-29 17:04:24,0.0
879,-303,-4086,-3,-32,-1,2024-01-29 17:04:24,0.0
907,-344,-4250,-29,-7,11,2024-01-29 17:04:24,0.0
851,-268,-4163,-20,-7,19,2024-01-29 17:04:24,0.0
899,-319,-4119,-39,-22,19,2024-01-29 17:04:24,0.0
946,-379,-4077,-26,-39,21,2024-01-29 17:04:24,0.0
879,-341,-4178,-20,7,5,2024-01-29 17:04:24,0.0
879,-394,-4245,-12,-34,17,2024-01-29 17:04:24,0.0
844,-341,-4083,-48,-33,7,2024-01-29 17:04:24,0.0
918,-366,-4107,-52,-48,11,2024-01-29 17:04:24,0.0
937,-369,-4148,-27,3,5,2024-01-29 17:04:24,0.0
820,-315,-4137,-42,-29,5,2024-01-29 17:04:24,0.0
837,-355,-4114,-31,-51,10,2024-01-29 17:04:24,0.0
893,-293,-4129,-48,-50,6,2024-01-29 17:04:24,0.0
919,-454,-4194,-77,-50,-22,2024-01-29 17:04:25,0.0
856,-414,-4224,-50,-24,-19,2024-01-29 17:04:25,0.0
868,-263,-4148,-35,-21,-1,2024-01-29 17:04:25,0.0
824,-273,-4045,-87,-54,-4,2024-01-29 17:04:25,0.0
912,-295,-4180,-50,-78,15,2024-01-29 17:04:25,0.0
825,-269,-4125,-39,-28,16,2024-01-29 17:04:25,0.0
865,-334,-4161,-16,-12,0,2024-01-29 17:04:25,0.0
922,-348,-4113,-1,-32,10,2024-01-29 17:04:25,0.0
875,-305,-4189,-41,-15,13,2024-01-29 17:04:25,0.0
829,-367,-4137,-27,-8,16,2024-01-29 17:04:25,0.0
837,-345,-4034,-32,-46,11,2024-01-29 17:04:25,0.0
892,-319,-4177,-28,-2,5,2024-01-29 17:04:25,0.0
855,-371,-4101,-26,-13,8,2024-01-29 17:04:25,0.0
927,-332,-4189,-14,-1,-2,2024-01-29 17:04:25,0.0
855,-371,-4173,-21,-7,15,2024-01-29 17:04:25,0.0
897,-317,-4190,-49,-14,13,2024-01-29 17:04:25,0.0
843,-416,-4324,-31,29,8,2024-01-29 17:04:25,0.0
870,-295,-4432,-16,62,29,2024-01-29 17:04:26,0.0
724,0,-4669,-70,7,37,2024-01-29 17:04:26,0.0
791,-118,-5132,-23,-47,74,2024-01-29 17:04:26,0.0
661,-292,-4648,390,-47,148,2024-01-29 17:04:26,0.0
577,-207,-4499,495,-155,53,2024-01-29 17:04:26,0.0
857,-536,-3201,476,129,50,2024-01-29 17:04:26,0.0
826,-1205,-3344,671,173,163,2024-01-29 17:04:26,0.0
1255,-1920,-3614,855,421,208,2024-01-29 17:04:26,0.0
1161,-1464,-4062,799,320,87,2024-01-29 17:04:26,0.0
1225,-1126,-4810,440,142,-46,2024-01-29 17:04:26,0.0
1015,-2032,-3956,180,-37,-39,2024-01-29 17:04:26,0.0
1099,-1092,-3508,398,-154,144,2024-01-29 17:04:26,0.0
1024,-1492,-3557,-424,-465,-64,2024-01-29 17:04:26,0.0
1064,-1725,-3754,-566,-187,42,2024-01-29 17:04:26,0.0
246,-2377,-3889,-263,-307,-61,2024-01-29 17:04:26,0.0
818,-1070,-3975,-91,-433,-71,2024-01-29 17:04:27,0.0
341,-1696,-3906,-310,-261,-117,2024-01-29 17:04:28,0.0
550,-1382,-3992,-156,8,-139,2024-01-29 17:04:28,0.0
967,-307,-3982,-370,269,-198,2024-01-29 17:04:28,0.0
537,-989,-4005,-670,301,-87,2024-01-29 17:04:28,0.0
842,-653,-4215,-789,564,-56,2024-01-29 17:04:28,0.0
1328,-812,-3815,-712,719,-83,2024-01-29 17:04:28,0.0
1484,-549,-4091,-751,814,-40,2024-01-29 17:04:28,0.0
1655,-873,-4084,-635,778,-185,2024-01-29 17:04:28,0.0
1853,-562,-4084,-360,942,-194,2024-01-29 17:04:28,0.0
3624,-93,-1083,-438,-219,203,2024-01-29 17:04:28,0.0
4270,297,-315,-46,899,201,2024-01-29 17:04:28,0.0
2895,-999,-592,-29,175,36,2024-01-29 17:04:29,0.0
4464,33,-613,434,560,-33,2024-01-29 17:04:29,0.0
3456,-466,-779,235,82,75,2024-01-29 17:04:29,0.0
4198,-549,-580,362,310,243,2024-01-29 17:04:29,0.0
4555,-967,81,444,560,137,2024-01-29 17:04:29,0.0
4102,-435,161,492,544,-82,2024-01-29 17:04:29,0.0
4094,-41,381,120,321,-106,2024-01-29 17:04:29,0.0
4170,-479,263,-273,379,-282,2024-01-29 17:04:29,0.0
4212,-913,524,-247,282,-369,2024-01-29 17:04:29,0.0
5218,237,163,-235,63,-176,2024-01-29 17:04:29,
3623,-311,321,-489,148,-119,2024-01-29 17:04:29,0.0
4170,-305,146,-403,-90,67,2024-01-29 17:04:29,0.0
4459,-485,312,-18,174,71,2024-01-29 17:04:29,0.0
4195,40,407,180,52,68,2024-01-29 17:04:29,0.0
4407,230,465,93,-120,50,2024-01-29 17:04:29,0.0
4046,132,310,-123,-183,-2,2024-01-29 17:04:29,0.0
4490,84,126,-67,-400,-6,2024-01-29 17:04:29,0.0
4693,-119,108,202,-122,-30,2024-01-29 17:04:29,0.0
4285,428,201,228,-59,-77,2024-01-29 17:04:30,0.0
4107,78,214,267,-235,12,2024-01-29 17:04:30,0.0
4123,347,318,307,-199,207,2024-01-29 17:04:30,0.0
3941,447,-79,187,-328,370,2024-01-29 17:04:30,0.0
6233,-885,-741,-369,-626,39,2024-01-29 17:04:30,0.0
2924,135,122,9,282,-140,2024-01-29 17:04:30,0.0
4620,-1435,295,58,-554,159,2024-01-29 17:04:30,0.0
4796,279,261,-12,189,-144,2024-01-29 17:04:30,0.0
4082,-526,60,-215,-114,206,2024-01-29 17:04:30,0.0
4184,-617,220,-377,38,-52,2024-01-29 17:04:30,0.0
4367,-565,207,-268,-77,1,2024-01-29 17:04:30,0.0
4424,-694,115,-236,-12,-40,2024-01-29 17:04:30,0.0
4227,-518,-310,-51,-208,-40,2024-01-29 17:04:30,0.0
4302,-707,-361,56,105,50,2024-01-29 17:04:30,0.0
4372,-309,-407,81,-18,57,2024-01-29 17:04:30,0.0
4359,-53,-348,-42,-191,-11,2024-01-29 17:04:30,0.0
4266,337,-238,-159,-221,-160,2024-01-29 17:04:30,0.0
4859,312,98,-18,-148,-31,2024-01-29 17:04:31,0.0
3912,215,-378,78,114,-261,2024-01-29 17:04:31,0.0
4300,719,-456,12,-47,237,2024-01-29 17:04:31,0.0
4554,-430,-199,-180,257,-6,2024-01-29 17:04:31,0.0
4112,-183,-481,-153,-177,69,2024-01-29 17:04:31,0.0
4326,-336,-517,26,-186,54,2024-01-29 17:04:31,0.0
4333,-90,-490,78,-206,133,2024-01-29 17:04:31,0.0
4688,-1074,-458,123,-69,351,2024-01-29 17:04:31,0.0
4075,-820,44,-29,359,-36,2024-01-29 17:04:31,0.0
3712,-561,205,-310,105,-319,2024-01-29 17:04:31,0.0
4865,-896,-447,-207,-188,-335,2024-01-29 17:04:31,0.0
4595,460,-527,-80,175,-60,2024-01-29 17:04:31,0.0
3833,-396,-220,-262,-204,-67,2024-01-29 17:04:31,0.0
4545,316,-241,-242,-252,-140,2024-01-29 17:04:31,0.0
4578,366,-356,111,148,-111,2024-01-29 17:04:31,0.0
4091,577,345,75,249,-3,2024-01-29 17:04:31,0.0
4006,544,-427,27,-336,210,2024-01-29 17:04:31,0.0
5026,-314,-489,-234,292,176,2024-01-29 17:04:32,0.0
3797,-484,-85,-92,84,-77,2024-01-29 17:04:32,0.0
4333,-111,-92,112,-36,54,2024-01-29 17:04:32,0.0
4305,-113,-202,25,-139,-26,2024-01-29 17:04:32,0.0
4398,-292,-234,17,-113,40,2024-01-29 17:04:32,0.0
4481,-231,-233,0,-40,73,2024-01-29 17:04:32,0.0
4248,-155,-199,-82,-22,18,2024-01-29 17:04:32,0.0
4238,-374,-188,-74,-100,0,2024-01-29 17:04:32,0.0
4278,-335,-280,-14,-202,-29,2024-01-29 17:04:32,0.0
4571,38,-302,-85,-39,15,2024-01-29 17:04:32,0.0
4216,-242,-157,-74,-75,59,2024-01-29 17:04:32,0.0
4335,-34,-226,-123,-142,17,2024-01-29 17:04:32,0.0
4449,-164,-409,-60,-74,50,2024-01-29 17:04:32,0.0
4286,-29,-263,-73,-17,-4,2024-01-29 17:04:32,0.0
4374,-155,-348,13,-41,8,2024-01-29 17:04:32,0.0
4266,-81,-276,25,-105,0,2024-01-29 17:04:32,0.0
4392,-95,-403,32,-56,7,2024-01-29 17:04:32,0.0
4344,-47,-351,-30,-80,1,2024-01-29 17:04:32,0.0
4321,-180,-331,-24,-87,8,2024-01-29 17:04:33,0.0
4314,-124,-352,-35,-47,0,2024-01-29 17:04:33,0.0
4357,-141,-370,-36,-36,13,2024-01-29 17:04:33,0.0
4306,-148,-384,-25,-34,8,2024-01-29 17:04:33,0.0
4326,-154,-333,-21,-19,10,2024-01-29 17:04:33,0.0
4354,-141,-405,-8,-22,4,2024-01-29 17:04:33,0.0
4312,-170,-392,-17,-57,1,2024-01-29 17:04:33,0.0
4299,-140,-369,-17,18,-6,2024-01-29 17:04:33,0.0
4343,-120,-380,-32,-29,-7,2024-01-29 17:04:33,0.0
4340,-144,-436,-41,-7,-11,2024-01-29 17:04:33,0.0
4316,-121,-387,-52,-24,7,2024-01-29 17:04:33,0.0
4332,-153,-395,-43,-75,4,2024-01-29 17:04:33,0.0
4348,-139,-400,-20,-57,2,2024-01-29 17:04:33,0.0
4334,-126,-386,-15,-33,-12,2024-01-29 17:04:33,0.0
4314,-107,-393,-3,-43,-20,2024-01-29 17:04:33,0.0
4335,-139,-462,-3,-62,-17,2024-01-29 17:04:33,0.0
4322,-112,-428,6,-52,-21,2024-01-29 17:04:33,0.0
4323,-59,-408,-26,-40,-3,2024-01-29 17:04:34,0.0
4304,-90,-373,-55,-8,-4,2024-01-29 17:04:34,0.0
4289,-63,-387,-83,-41,-4,2024-01-29 17:04:34,0.0
4298,-84,-422,-79,-27,11,2024-01-29 17:04:34,0.0
4318,-55,-398,-69,-55,15,2024-01-29 17:04:34,0.0
4304,-50,-369,-98,-89,27,2024-01-29 17:04:34,0.0
4323,-128,-416,-102,0,25,2024-01-29 17:04:34,0.0
4321,-87,-405,-94,59,46,2024-01-29 17:04:34,0.0
4320,-83,-364,-104,32,33,2024-01-29 17:04:34,0.0
4315,-76,-321,-130,57,39,2024-01-29 17:04:34,0.0
4327,-123,-358,-106,20,27,2024-01-29 17:04:34,0.0
4332,-126,-341,-85,87,26,2024-01-29 17:04:34,0.0
4357,-129,-298,-53,51,31,2024-01-29 17:04:34,0.0
4338,-152,-231,-32,20,27,2024-01-29 17:04:34,0.0
4321,-87,-298,-5,-12,9,2024-01-29 17:04:34,0.0
4366,-105,-265,-24,-24,15,2024-01-29 17:04:34,0.0
4310,-114,-307,-40,-19,25,2024-01-29 17:04:34,0.0
4372,-129,-307,-21,10,22,2024-01-29 17:04:34,0.0
4317,-105,-215,-41,26,11,2024-01-29 17:04:35,0.0
4328,-170,-250,-24,64,9,2024-01-29 17:04:35,0.0
4330,-109,-181,-17,63,14,2024-01-29 17:04:35,0.0
4303,-134,-223,-44,6,16,2024-01-29 17:04:35,0.0
4351,-180,-224,-32,46,15,2024-01-29 17:04:35,
4323,-98,-168,-35,-12,19,2024-01-29 17:04:35,0.0
4355,-181,-136,-39,11,22,2024-01-29 17:04:35,0.0
4373,-139,-151,-40,-19,19,2024-01-29 17:04:35,0.0
4334,-148,-210,-36,-4,19,2024-01-29 17:04:35,0.0
4323,-144,-148,-53,-39,17,2024-01-29 17:04:35,0.0
4374,-190,-161,-37,-25,30,2024-01-29 17:04:35,0.0
4320,-129,-156,-42,-68,19,2024-01-29 17:04:35,0.0
4389,-190,-219,-28,-52,38,2024-01-29 17:04:35,0.0
4340,-158,-206,-24,-34,25,2024-01-29 17:04:35,0.0
4325,-138,-192,-38,-40,30,2024-01-29 17:04:35,0.0
4335,-180,-148,-40,-18,19,2024-01-29 17:04:35,0.0
4361,-215,-204,-35,-24,20,2024-01-29 17:04:35,0.0
4274,-209,-173,-13,-22,18,2024-01-29 17:04:36,0.0
4366,-215,-181,14,-39,16,2024-01-29 17:04:36,0.0
4351,-184,-178,13,-15,17,2024-01-29 17:04:36,0.0
4311,-162,-190,-18,-22,23,2024-01-29 17:04:36,0.0
4360,-191,-161,-33,3,21,2024-01-29 17:04:36,0.0
4342,-224,-151,-33,6,24,2024-01-29 17:04:36,0.0
4315,-184,-127,-20,0,15,2024-01-29 17:04:36,0.0
4320,-215,-129,-36,-14,18,2024-01-29 17:04:36,0.0
4357,-210,-155,-54,3,11,2024-01-29 17:04:36,0.0
4332,-192,-145,-63,-6,13,2024-01-29 17:04:36,0.0
4324,-220,-175,-80,10,6,2024-01-29 17:04:36,0.0
4311,-239,-114,-80,2,9,2024-01-29 17:04:36,0.0
4330,-229,-174,-70,-15,13,2024-01-29 17:04:36,0.0
4335,-248,-106,-55,-12,10,2024-01-29 17:04:37,0.0
4352,-214,-144,-40,-27,7,2024-01-29 17:04:38,0.0
4325,-219,-166,-36,-16,3,2024-01-29 17:04:38,0.0
4377,-191,-146,-37,-13,-2,2024-01-29 17:04:38,0.0
4331,-136,-123,-55,-20,-8,2024-01-29 17:04:38,0.0
4316,-238,-142,-57,-42,-10,2024-01-29 17:04:38,0.0
4376,-226,-109,-49,-52,-8,2024-01-29 17:04:38,0.0
4361,-215,-136,-44,-99,-6,2024-01-29 17:04:38,0.0
4318,-177,-149,-26,-70,-3,2024-01-29 17:04:38,0.0
4342,-151,-206,-34,-103,0,2024-01-29 17:04:39,0.0
4239,-132,-634,43,-740,2,2024-01-29 17:04:39,0.0
3995,-134,-577,16,-653,-31,2024-01-29 17:04:39,0.0
3733,59,-648,-117,-728,-33,2024-01-29 17:04:39,0.0
3894,-224,-732,-144,-511,-49,2024-01-29 17:04:39,0.0
3297,-101,-823,-153,-863,-198,2024-01-29 17:04:39,0.0
2228,10,-1055,-102,-1164,-173,2024-01-29 17:04:39,0.0
1164,-99,-287,185,-1592,-173,2024-01-29 17:04:39,0.0
-233,-866,-719,401,-2131,-506,2024-01-29 17:04:39,0.0
-77,-30,-1748,573,-3134,-76,2024-01-29 17:04:39,0.0
4350,2059,-5298,-1430,-8559,161,2024-01-29 17:04:39,0.0
247,-1874,-5539,691,-897,602,2024-01-29 17:04:39,0.0
749,1218,-17292,-2576,1345,-120,2024-01-29 17:04:39,0.0
-3953,1115,-6999,-7,6516,201,2024-01-29 17:04:39,0.0
-2895,811,-2566,-334,-2821,-59,2024-01-29 17:04:39,0.0
629,594,-4118,-217,-333,346,2024-01-29 17:04:39,0.0
-1972,-911,-3182,889,704,302,2024-01-29 17:04:39,0.0
231,825,-2126,77,-902,35,2024-01-29 17:04:39,0.0
656,-55,-3710,514,-18,-43,2024-01-29 17:04:39,0.0
747,-493,-5391,441,-421,17,2024-01-29 17:04:39,0.0
1067,-509,-4533,259,-453,-58,2024-01-29 17:04:40,0.0
1339,-87,-4139,-84,-196,-215,2024-01-29 17:04:40,0.0
640,-604,-4615,263,188,86,2024-01-29 17:04:40,0.0
594,-432,-3422,-131,254,-98,2024-01-29 17:04:40,0.0
686,-178,-4481,71,-361,-4,2024-01-29 17:04:40,0.0
521,-473,-4270,-159,59,20,2024-01-29 17:04:40,0.0
488,-454,-4015,-95,29,51,2024-01-29 17:04:40,0.0
628,-311,-4222,-106,-94,35,2024-01-29 17:04:40,0.0
545,-231,-4202,-79,28,33,2024-01-29 17:04:40,0.0
653,-217,-4193,-93,-162,27,2024-01-29 17:04:40,0.0
596,-288,-4034,-15,33,18,2024-01-29 17:04:40,0.0
685,-264,-4266,17,-96,10,2024-01-29 17:04:40,0.0
568,-387,-4108,-46,58,-11,2024-01-29 17:04:40,0.0
506,-313,-4210,2,-103,3,2024-01-29 17:04:40,0.0
643,-351,-4240,-51,16,-33,2024-01-29 17:04:40,0.0
462,-297,-4150,-44,-63,-4,2024-01-29 17:04:40,0.0
628,-299,-4249,-33,-88,-1,2024-01-29 17:04:40,0.0
525,-265,-4205,-53,-72,25,2024-01-29 17:04:41,0.0
596,-348,-4201,-66,-63,-1,2024-01-29 17:04:41,0.0
474,-283,-4092,-53,-69,5,2024-01-29 17:04:41,0.0
597,-230,-4178,-63,-88,29,2024-01-29 17:04:41,0.0
505,-286,-4206,-83,-21,0,2024-01-29 17:04:41,0.0
444,-270,-4218,-77,-89,4,2024-01-29 17:04:41,0.0
555,-271,-4192,-74,-58,7,2024-01-29 17:04:41,0.0
459,-251,-4177,-75,-42,5,2024-01-29 17:04:41,0.0
541,-280,-4260,-40,-50,2,2024-01-29 17:04:41,0.0
463,-219,-4199,-78,-84,-2,2024-01-29 17:04:41,0.0
474,-263,-4262,-49,-78,-2,2024-01-29 17:04:41,0.0
443,-273,-4152,-62,-48,7,2024-01-29 17:04:41,0.0
440,-253,-4300,-53,-72,8,2024-01-29 17:04:41,0.0
418,-230,-4184,-42,-41,16,2024-01-29 17:04:41,0.0
459,-206,-4162,-31,-28,8,2024-01-29 17:04:41,0.0
493,-218,-4187,-59,-26,0,2024-01-29 17:04:41,0.0
470,-190,-4179,-79,-37,2,2024-01-29 17:04:41,0.0
439,-242,-4251,-32,6,14,2024-01-29 17:04:41,0.0
444,-223,-4191,-66,-24,12,2024-01-29 17:04:42,0.0
430,-209,-4171,-46,-9,14,2024-01-29 17:04:42,0.0
462,-163,-4166,-53,-33,12,2024-01-29 17:04:42,0.0
459,-159,-4202,-63,-26,10,2024-01-29 17:04:42,0.0
446,-166,-4191,-35,-17,6,2024-01-29 17:04:42,0.0
468,-135,-4168,-44,-36,8,2024-01-29 17:04:42,0.0
464,-166,-4181,-40,-57,5,2024-01-29 17:04:42,0.0
404,-195,-4200,-3,-56,-21,2024-01-29 17:04:42,0.0
458,-259,-4221,-44,2,-34,2024-01-29 17:04:42,0.0
449,-268,-4198,6,7,-33,2024-01-29 17:04:42,0.0
454,-277,-4225,3,65,-16,2024-01-29 17:04:42,
494,-231,-4185,27,41,-19,2024-01-29 17:04:42,0.0
507,-226,-4207,7,-37,-17,2024-01-29 17:04:42,0.0
519,-226,-4132,-10,-29,-7,2024-01-29 17:04:42,0.0
530,-329,-4113,-50,-57,-5,2024-01-29 17:04:42,0.0
471,-347,-4175,1,-65,1,2024-01-29 17:04:42,0.0
456,-298,-4274,-40,-73,11,2024-01-29 17:04:42,0.0
473,-291,-4085,-50,-19,15,2024-01-29 17:04:43,0.0
436,-308,-4207,-42,-33,14,2024-01-29 17:04:43,0.0
497,-283,-4166,-48,-43,4,2024-01-29 17:04:43,0.0
430,-307,-4246,-51,-64,-3,2024-01-29 17:04:43,0.0
446,-287,-4202,-38,-70,-2,2024-01-29 17:04:43,0.0
421,-279,-4271,-42,-49,-1,2024-01-29 17:04:43,0.0
413,-237,-4225,-25,-5,8,2024-01-29 17:04:43,0.0
420,-246,-4154,-47,-38,4,2024-01-29 17:04:43,0.0
472,-266,-4161,-51,-22,16,2024-01-29 17:04:43,0.0
428,-307,-4208,-50,-55,23,2024-01-29 17:04:43,0.0
426,-234,-4145,-40,-54,23,2024-01-29 17:04:43,0.0
427,-191,-4156,-31,-51,11,2024-01-29 17:04:43,0.0
409,-221,-4189,-38,-27,-2,2024-01-29 17:04:43,0.0
392,-179,-4227,-29,-20,0,2024-01-29 17:04:43,0.0
412,-212,-4166,-36,-19,12,2024-01-29 17:04:43,0.0
396,-227,-4208,-59,-11,11,2024-01-29 17:04:43,0.0
457,-240,-4179,-39,-53,9,2024-01-29 17:04:43,0.0
435,-278,-4182,-53,-40,8,2024-01-29 17:04:43,0.0
446,-195,-4174,-36,-30,12,2024-01-29 17:04:44,0.0
416,-229,-4156,-46,-59,17,2024-01-29 17:04:44,0.0
392,-222,-4231,-39,-32,11,2024-01-29 17:04:44,0.0
393,-296,-4247,-52,-7,-6,2024-01-29 17:04:44,0.0
437,-266,-4213,-46,-26,-4,2024-01-29 17:04:44,0.0
426,-242,-4186,-46,-21,5,2024-01-29 17:04:44,0.0
405,-218,-4245,-28,-30,12,2024-01-29 17:04:44,0.0
445,-228,-4140,-35,-23,13,2024-01-29 17:04:44,0.0
427,-262,-4209,-44,-24,5,2024-01-29 17:04:44,0.0
448,-278,-4261,-46,-26,11,2024-01-29 17:04:44,0.0
414,-258,-4204,-27,-15,11,2024-01-29 17:04:44,0.0
406,-223,-4208,-51,-13,5,2024-01-29 17:04:44,0.0
471,-242,-4181,-35,-3,1,2024-01-29 17:04:44,0.0
454,-247,-4203,-47,0,6,2024-01-29 17:04:44,0.0
454,-277,-4192,-38,-10,13,2024-01-29 17:04:44,0.0
444,-265,-4182,-51,-46,8,2024-01-29 17:04:44,0.0
454,-227,-4151,-57,-78,12,2024-01-29 17:04:44,0.0
439,-222,-4156,-68,-49,5,2024-01-29 17:04:45,0.0
403,-171,-4181,-42,-33,6,2024-01-29 17:04:45,0.0
445,-195,-4239,-42,11,2,2024-01-29 17:04:45,0.0
398,-208,-4221,-40,10,6,2024-01-29 17:04:45,0.0
465,-261,-4220,-47,-2,6,2024-01-29 17:04:45,0.0
463,-269,-4222,-35,7,12,2024-01-29 17:04:45,0.0
407,-258,-4265,-38,22,6,2024-01-29 17:04:45,0.0
456,-250,-4175,-30,-21,3,2024-01-29 17:04:45,0.0
457,-223,-4208,-46,-21,-2,2024-01-29 17:04:45,0.0
475,-220,-4208,-49,-24,2,2024-01-29 17:04:45,0.0
506,-192,-4154,-52,-12,1,2024-01-29 17:04:45,0.0
463,-242,-4186,-42,-15,-3,2024-01-29 17:04:45,0.0
500,-208,-4182,-38,-9,-2,2024-01-29 17:04:45,0.0
510,-271,-4191,-43,-24,0,2024-01-29 17:04:45,0.0
559,-190,-4233,-26,66,9,2024-01-29 17:04:45,0.0
444,-216,-4228,-34,-37,14,2024-01-29 17:04:45,0.0
488,-260,-4092,-40,10,14,2024-01-29 17:04:45,0.0
518,-237,-4206,-51,-18,-6,2024-01-29 17:04:45,0.0
493,-229,-4239,-37,-31,-8,2024-01-29 17:04:46,0.0
472,-256,-4245,-17,-34,-8,2024-01-29 17:04:46,0.0
446,-235,-4170,-30,-21,1,2024-01-29 17:04:46,0.0
493,-245,-4178,-31,33,-4,2024-01-29 17:04:46,0.0
534,-257,-4165,-33,24,-8,2024-01-29 17:04:46,0.0
550,-231,-4156,-12,-17,-25,2024-01-29 17:04:46,0.0
538,-246,-4155,-4,-1,-15,2024-01-29 17:04:46,0.0
510,-250,-4269,-23,12,-8,2024-01-29 17:04:46,0.0
555,-292,-4242,-11,7,15,2024-01-29 17:04:46,0.0
550,-273,-4113,-41,0,13,2024-01-29 17:04:46,0.0
534,-241,-4145,-52,-39,13,2024-01-29 17:04:46,0.0
568,-245,-4219,-53,-63,6,2024-01-29 17:04:46,0.0
543,-264,-4215,-44,-24,7,2024-01-29 17:04:46,0.0
523,-299,-4227,-41,-20,7,2024-01-29 17:04:46,0.0
545,-273,-4144,-39,7,12,2024-01-29 17:04:46,0.0
539,-273,-4188,-42,-18,10,2024-01-29 17:04:46,0.0
564,-241,-4178,-45,-41,7,2024-01-29 17:04:46,0.0
550,-195,-4221,-34,-51,13,2024-01-29 17:04:47,0.0
526,-219,-4159,-27,-28,19,2024-01-29 17:04:47,0.0
557,-233,-4162,-40,-6,13,2024-01-29 17:04:47,0.0
578,-249,-4159,-38,-25,12,2024-01-29 17:04:47,0.0
570,-268,-4256,-47,-53,7,2024-01-29 17:04:47,0.0
546,-269,-4228,-27,-35,10,2024-01-29 17:04:47,0.0
550,-231,-4216,-32,-37,6,2024-01-29 17:04:47,0.0
532,-231,-4253,-45,-32,11,2024-01-29 17:04:47,0.0
580,-205,-4147,-35,-12,11,2024-01-29 17:04:47,0.0
573,-239,-4158,-46,-14,10,2024-01-29 17:04:47,0.0
550,-263,-4257,-47,-39,1,2024-01-29 17:04:47,0.0
555,-265,-4190,-37,-43,-2,2024-01-29 17:04:47,0.0
597,-226,-4149,-38,10,-20,2024-01-29 17:04:47,0.0
592,-258,-4270,-26,-1,13,2024-01-29 17:04:47,0.0
561,-215,-4151,-43,3,22,2024-01-29 17:04:47,0.0
546,-223,-4079,-35,-21,13,2024-01-29 17:04:47,0.0
638,-180,-4191,-29,18,9,2024-01-29 17:04:47,0.0
561,-230,-4257,-41,-19,4,2024-01-29 17:04:47,0.0
579,-246,-4174,-34,-6,17,2024-01-29 17:04:48,0.0
603,-240,-4232,-43,9,16,2024-01-29 17:04:48,0.0
613,-351,-4215,-36,-26,7,2024-01-29 17:04:48,0.0
630,-354,-4160,-28,-16,8,2024-01-29 17:04:48,0.0
585,-258,-4195,-45,-33,13,2024-01-29 17:04:48,0.0
563,-255,-4205,-27,-44,10,2024-01-29 17:04:48,
589,-268,-4145,-21,-22,8,2024-01-29 17:04:48,0.0
606,-302,-4175,-23,-18,0,2024-01-29 17:04:48,0.0
592,-201,-4214,-37,-35,-10,2024-01-29 17:04:48,0.0
577,-262,-4199,-28,-54,8,2024-01-29 17:04:48,0.0
610,-299,-4146,-35,-28,12,2024-01-29 17:04:48,0.0
631,-304,-4213,-33,-23,8,2024-01-29 17:04:48,0.0
581,-307,-4234,-30,-28,13,2024-01-29 17:04:48,0.0
610,-341,-4168,-31,-28,10,2024-01-29 17:04:48,0.0
583,-269,-4138,-50,-31,7,2024-01-29 17:04:48,0.0
572,-291,-4180,-37,-57,2,2024-01-29 17:04:48,0.0
608,-275,-4241,-49,-38,8,2024-01-29 17:04:48,0.0
623,-316,-4195,-31,-6,12,2024-01-29 17:04:49,0.0
579,-289,-4234,-35,-4,18,2024-01-29 17:04:49,0.0
603,-261,-4145,-37,-5,25,2024-01-29 17:04:49,0.0
650,-240,-4161,-40,-17,7,2024-01-29 17:04:49,0.0
617,-248,-4199,-20,-14,9,2024-01-29 17:04:49,0.0
608,-218,-4174,-45,-18,7,2024-01-29 17:04:49,0.0
598,-289,-4181,-47,-16,7,2024-01-29 17:04:49,0.0
599,-299,-4214,-38,-45,9,2024-01-29 17:04:49,0.0
590,-287,-4225,-50,-25,10,2024-01-29 17:04:49,0.0
634,-223,-4144,-37,1,18,2024-01-29 17:04:49,0.0
635,-279,-4293,11,-8,34,2024-01-29 17:04:49,0.0
669,-148,-4729,-177,396,111,2024-01-29 17:04:49,0.0
464,-339,-5551,114,448,134,2024-01-29 17:04:49,0.0
359,-446,-4813,-153,58,64,2024-01-29 17:04:49,0.0
506,-158,-4824,-66,-636,83,2024-01-29 17:04:49,0.0
700,113,-4120,-26,-340,27,2024-01-29 17:04:49,0.0
302,596,-4098,-109,-376,53,2024-01-29 17:04:49,0.0
535,425,-3774,-232,-243,140,2024-01-29 17:04:49,0.0
-30,-117,-3743,-47,-519,-26,2024-01-29 17:04:50,0.0
-128,-1006,-4330,670,-547,-343,2024-01-29 17:04:50,0.0
666,-109,-4093,1152,-363,-488,2024-01-29 17:04:50,0.0
89,-1569,-3144,1674,-590,-763,2024-01-29 17:04:50,0.0
279,-1875,-4604,1900,-56,-644,2024-01-29 17:04:50,0.0
703,-1540,-4210,1468,217,-245,2024-01-29 17:04:50,0.0
637,-2391,-3408,1005,38,-31,2024-01-29 17:04:50,0.0
-214,-1507,-3355,460,50,-4,2024-01-29 17:04:50,0.0
239,-2132,-3187,-113,38,215,2024-01-29 17:04:50,0.0
-144,-3011,-3124,-77,-159,75,2024-01-29 17:04:50,0.0
-93,-2212,-3640,197,-49,54,2024-01-29 17:04:50,0.0
201,-2658,-3400,-45,-294,16,2024-01-29 17:04:50,0.0
-167,-2361,-3261,-160,-407,-27,2024-01-29 17:04:50,0.0
-103,-2252,-3166,-388,-375,25,2024-01-29 17:04:50,0.0
182,-2525,-3864,-65,-346,-156,2024-01-29 17:04:50,0.0
242,-1710,-3731,-550,148,-187,2024-01-29 17:04:50,0.0
383,-2134,-4005,-577,1047,-266,2024-01-29 17:04:50,0.0
828,-1857,-4221,-489,487,-244,2024-01-29 17:04:51,0.0
621,-1804,-3919,-420,737,-242,2024-01-29 17:04:51,0.0
638,-1348,-3195,-523,993,-299,2024-01-29 17:04:51,0.0
1848,-1478,-3865,-839,1251,-228,2024-01-29 17:04:51,0.0
964,-1819,-3607,-418,815,-225,2024-01-29 17:04:51,0.0
1847,-1599,-3778,-446,684,-400,2024-01-29 17:04:51,0.0
1179,-1333,-3895,-369,460,-250,2024-01-29 17:04:51,0.0
1742,-1482,-4156,-687,610,-240,2024-01-29 17:04:51,0.0
1177,-1046,-3621,-495,689,53,2024-01-29 17:04:51,0.0
1914,-611,-4482,-1091,1613,19,2024-01-29 17:04:51,0.0
1033,386,-2416,-1422,471,590,2024-01-29 17:04:51,0.0
1683,-631,-4318,-1455,-99,549,2024-01-29 17:04:51,0.0
2320,330,-4506,-1411,-161,276,2024-01-29 17:04:51,0.0
1746,-48,-4218,-990,-756,320,2024-01-29 17:04:51,0.0
1532,833,-3978,-1057,-1158,298,2024-01-29 17:04:51,0.0
763,555,-2855,-1166,-1245,397,2024-01-29 17:04:51,0.0
1538,-76,-3338,-842,-387,562,2024-01-29 17:04:51,0.0
2340,-753,-4053,276,753,754,2024-01-29 17:04:51,0.0
2641,1021,-3159,567,1571,1092,2024-01-29 17:04:52,0.0
4077,497,-2421,490,2445,599,2024-01-29 17:04:52,0.0
5514,369,-3638,129,3330,8,2024-01-29 17:04:52,0.0
6772,1470,-3038,330,3109,-155,2024-01-29 17:04:52,0.0
5561,677,-1888,-540,2539,-92,2024-01-29 17:04:52,0.0
4958,-403,-1541,-700,1480,-407,2024-01-29 17:04:52,0.0
3853,-493,-872,525,355,71,2024-01-29 17:04:52,0.0
4980,-186,-693,566,336,-304,2024-01-29 17:04:52,0.0
4052,773,-537,562,-127,101,2024-01-29 17:04:52,0.0
4713,-384,-656,437,-137,549,2024-01-29 17:04:52,0.0
4299,623,-499,240,-22,273,2024-01-29 17:04:52,0.0
3479,466,-249,258,6,344,2024-01-29 17:04:52,0.0
3508,-338,-788,566,25,452,2024-01-29 17:04:52,0.0
3665,-570,-805,691,164,155,2024-01-29 17:04:52,0.0
3172,98,-489,630,144,14,2024-01-29 17:04:52,0.0
2772,-731,-167,465,344,263,2024-01-29 17:04:52,0.0
3285,-755,-395,337,99,113,2024-01-29 17:04:52,0.0
4144,-555,-686,229,389,114,2024-01-29 17:04:53,0.0
4482,-1101,-95,153,634,-27,2024-01-29 17:04:53,0.0
4240,-200,-266,298,177,-119,2024-01-29 17:04:53,0.0
4382,-546,-359,190,307,-41,2024-01-29 17:04:53,0.0
3960,-191,209,-63,151,-113,2024-01-29 17:04:53,0.0
4341,-497,-3,-233,113,-135,2024-01-29 17:04:53,0.0
4232,-571,153,-224,49,-174,2024-01-29 17:04:53,0.0
4341,-694,5,-243,57,-127,2024-01-29 17:04:53,0.0
4287,-697,218,-235,134,-252,2024-01-29 17:04:53,0.0
4393,-435,179,-139,-92,-173,2024-01-29 17:04:53,0.0
4432,6,-222,-51,-23,23,2024-01-29 17:04:53,0.0
3910,527,-360,-293,-211,-168,2024-01-29 17:04:53,0.0
4213,-28,-374,-99,-440,-193,2024-01-29 17:04:53,0.0
5477,850,-60,-106,-148,-201,2024-01-29 17:04:53,0.0
3495,140,-63,33,60,-102,2024-01-29 17:04:53,0.0
4326,455,-71,91,-68,25,2024-01-29 17:04:53,0.0
4429,196,-154,10,193,292,2024-01-29 17:04:53,0.0
4457,-124,-424,-301,-55,-128,2024-01-29 17:04:53,0.0
3783,34,-244,94,-304,72,2024-01-29 17:04:54,
4655,31,-405,107,-285,-6,2024-01-29 17:04:54,0.0
4237,155,-264,62,-90,-41,2024-01-29 17:04:54,0.0
4373,-127,-414,87,-13,81,2024-01-29 17:04:54,0.0
4619,65,-472,64,24,47,2024-01-29 17:04:54,0.0
4126,-152,-340,66,140,90,2024-01-29 17:04:54,0.0
4481,-63,-296,46,140,66,2024-01-29 17:04:54,0.0
4038,32,-164,-56,-92,93,2024-01-29 17:04:54,0.0
4514,-225,-530,-137,-58,167,2024-01-29 17:04:54,0.0
4407,-210,-544,-243,39,129,2024-01-29 17:04:54,0.0
4119,-246,-295,-286,201,45,2024-01-29 17:04:54,0.0
4201,-329,-353,-161,-179,-50,2024-01-29 17:04:54,0.0
4396,-254,-322,19,-160,-89,2024-01-29 17:04:54,0.0
4443,-11,-448,149,-163,6,2024-01-29 17:04:54,0.0
4237,-59,-147,-44,-55,-13,2024-01-29 17:04:54,0.0
4428,-135,-122,-116,-148,24,2024-01-29 17:04:54,0.0
4304,-210,-204,-108,49,-15,2024-01-29 17:04:54,0.0
4440,-117,-275,-25,80,-1,2024-01-29 17:04:55,0.0
4278,-35,-168,13,80,43,2024-01-29 17:04:55,0.0
4467,-56,-392,-98,4,-38,2024-01-29 17:04:55,0.0
4256,5,-243,-100,-17,2,2024-01-29 17:04:55,0.0
4340,-266,-275,-65,44,-46,2024-01-29 17:04:55,0.0
4311,-1,-141,-45,60,-53,2024-01-29 17:04:55,0.0
4259,-214,-284,26,343,-235,2024-01-29 17:04:55,0.0
4196,81,33,25,437,-616,2024-01-29 17:04:55,0.0
4271,150,17,88,543,-717,2024-01-29 17:04:55,0.0
4345,546,189,-65,-199,-320,2024-01-29 17:04:55,0.0
3836,143,144,51,254,-698,2024-01-29 17:04:55,0.0
4530,1230,155,-58,-242,63,2024-01-29 17:04:55,0.0
4023,335,105,-175,-276,410,2024-01-29 17:04:55,0.0
3429,831,-47,-164,-555,1291,2024-01-29 17:04:55,0.0
6211,-209,-31,-315,-398,875,2024-01-29 17:04:55,0.0
4130,-384,12,-163,-38,365,2024-01-29 17:04:55,0.0
4506,-460,-283,64,74,-19,2024-01-29 17:04:55,0.0
4181,-287,-38,198,76,-412,2024-01-29 17:04:55,0.0
4479,363,-160,87,-26,-246,2024-01-29 17:04:56,0.0
4355,181,-224,-29,-12,36,2024-01-29 17:04:56,0.0
4273,132,-178,-36,-176,106,2024-01-29 17:04:56,0.0
4374,-2,-301,-29,-235,77,2024-01-29 17:04:56,0.0
4341,4,-359,-66,-215,31,2024-01-29 17:04:56,0.0
4312,-72,-331,-136,-123,23,2024-01-29 17:04:56,0.0
4337,-128,-319,-179,-114,34,2024-01-29 17:04:56,0.0
4338,-184,-314,-134,-96,29,2024-01-29 17:04:56,0.0
4362,-107,-329,-34,-65,26,2024-01-29 17:04:56,0.0
4348,-47,-390,1,50,12,2024-01-29 17:04:56,0.0
4318,-47,-326,5,31,8,2024-01-29 17:04:56,0.0
4316,-14,-337,-30,-26,-4,2024-01-29 17:04:56,0.0
4335,-132,-290,-57,-65,-3,2024-01-29 17:04:56,0.0
4331,-125,-385,-22,-72,-6,2024-01-29 17:04:56,0.0
4335,-51,-348,-13,-71,2,2024-01-29 17:04:56,0.0
4323,-47,-421,-38,-79,0,2024-01-29 17:04:56,0.0
4335,-39,-416,-49,-80,12,2024-01-29 17:04:56,0.0
4370,-47,-435,-71,-97,7,2024-01-29 17:04:57,0.0
4314,-45,-454,-85,-105,11,2024-01-29 17:04:57,0.0
4332,-49,-434,-73,-74,10,2024-01-29 17:04:57,0.0
4302,-76,-480,-47,-80,13,2024-01-29 17:04:57,0.0
4387,-65,-530,-11,-8,14,2024-01-29 17:04:57,0.0
4309,-49,-477,10,-48,18,2024-01-29 17:04:57,0.0
4290,-27,-476,-3,-65,14,2024-01-29 17:04:57,0.0
4395,-13,-495,-1,-52,18,2024-01-29 17:04:57,0.0
4281,-14,-473,-32,-71,13,2024-01-29 17:04:57,0.0
4329,-43,-539,-32,-57,14,2024-01-29 17:04:57,0.0
4307,-52,-493,-37,-92,12,2024-01-29 17:04:57,0.0
4272,-87,-499,-34,-32,9,2024-01-29 17:04:57,0.0
4323,-35,-512,-38,-102,3,2024-01-29 17:04:57,0.0
4320,-25,-550,-46,-46,2,2024-01-29 17:04:57,0.0
4321,3,-544,-67,-83,1,2024-01-29 17:04:57,0.0
4305,-66,-558,-68,-15,10,2024-01-29 17:04:57,0.0
4277,-93,-560,-41,-42,11,2024-01-29 17:04:57,0.0
4330,-101,-541,-7,-38,13,2024-01-29 17:04:57,0.0
4287,-76,-538,4,-47,12,2024-01-29 17:04:58,0.0
4312,-38,-538,-13,-56,15,2024-01-29 17:04:58,0.0
4303,-55,-654,-30,-68,18,2024-01-29 17:04:58,0.0
4335,-78,-588,-42,-29,13,2024-01-29 17:04:58,0.0
4311,-59,-579,-37,-33,16,2024-01-29 17:04:58,0.0
4293,-91,-610,-16,-27,13,2024-01-29 17:04:58,0.0
4278,-82,-565,-5,-54,11,2024-01-29 17:04:58,0.0
4306,-57,-633,-1,-45,12,2024-01-29 17:04:58,0.0
4311,-57,-648,6,-46,10,2024-01-29 17:04:58,0.0
4295,-61,-627,-6,-46,10,2024-01-29 17:04:58,0.0
4309,-47,-619,-12,-43,8,2024-01-29 17:04:58,0.0
4288,-61,-620,-21,-46,8,2024-01-29 17:04:58,0.0
4323,-45,-620,-37,-35,9,2024-01-29 17:04:58,0.0
4307,-64,-586,-64,-34,10,2024-01-29 17:04:58,0.0
4298,-53,-639,-81,-35,12,2024-01-29 17:04:58,0.0
4295,-60,-653,-92,-20,18,2024-01-29 17:04:58,0.0
4331,-106,-620,-78,-28,26,2024-01-29 17:04:58,0.0
4286,-96,-615,-44,-49,15,2024-01-29 17:04:59,0.0
4307,-90,-643,-8,-39,10,2024-01-29 17:04:59,0.0
4322,-60,-609,2,-22,2,2024-01-29 17:04:59,0.0
4305,-38,-615,-21,0,2,2024-01-29 17:04:59,0.0
4328,-61,-658,-56,-14,5,2024-01-29 17:04:59,0.0
4287,-106,-592,-80,-24,7,2024-01-29 17:04:59,0.0
4305,-98,-563,-80,-1,3,2024-01-29 17:04:59,0.0
4287,-87,-627,-37,-32,5,2024-01-29 17:04:59,0.0
4310,-100,-630,-8,-26,-2,2024-01-29 17:04:59,0.0
4303,-47,-619,-22,-33,-5,2024-01-29 17:04:59,0.0
4284,-53,-617,-52,-48,9,2024-01-29 17:04:59,0.0
4275,-70,-633,-76,-42,17,2024-01-29 17:04:59,0.0
4309,-74,-627,-60,-37,17,2024-01-29 17:04:59,0.0
4301,-94,-594,-39,-30,6,2024-01-29 17:04:59,
4324,-66,-628,-35,-69,8,2024-01-29 17:04:59,0.0
4281,-83,-647,-20,-43,6,2024-01-29 17:04:59,0.0
4291,-49,-637,-38,-73,14,2024-01-29 17:04:59,0.0
4318,-81,-707,-50,-35,14,2024-01-29 17:04:59,0.0
4306,-47,-690,-50,-72,20,2024-01-29 17:05:00,0.0
4315,-49,-679,-41,-36,20,2024-01-29 17:05:00,0.0
4310,-52,-660,-21,-84,15,2024-01-29 17:05:00,0.0
4309,-58,-675,-22,-46,9,2024-01-29 17:05:00,0.0
4281,-75,-712,-27,-69,10,2024-01-29 17:05:00,0.0
4287,-84,-694,-34,-48,8,2024-01-29 17:05:00,0.0
4303,-69,-718,-34,-55,7,2024-01-29 17:05:00,0.0
4270,-82,-712,-34,-56,6,2024-01-29 17:05:00,0.0
4301,-63,-751,-27,-56,10,2024-01-29 17:05:00,0.0
4263,-110,-757,-22,-57,5,2024-01-29 17:05:00,0.0
4271,-64,-705,-21,-47,12,2024-01-29 17:05:00,0.0
4301,-88,-736,-24,-30,16,2024-01-29 17:05:00,0.0
4298,-117,-734,-27,-35,11,2024-01-29 17:05:00,0.0
4269,-94,-742,-29,-39,8,2024-01-29 17:05:00,0.0
4287,-90,-742,-39,-26,5,2024-01-29 17:05:00,0.0
4294,-91,-763,-41,-28,8,2024-01-29 17:05:00,0.0
4296,-114,-793,-41,-33,7,2024-01-29 17:05:00,0.0
4285,-102,-712,-40,-39,10,2024-01-29 17:05:01,0.0
4292,-107,-750,-39,-27,3,2024-01-29 17:05:01,0.0
4292,-64,-759,-34,-33,1,2024-01-29 17:05:01,0.0
4268,-35,-789,-57,-6,8,2024-01-29 17:05:01,0.0
4276,-81,-814,-81,8,17,2024-01-29 17:05:01,0.0
4315,-162,-929,-52,80,18,2024-01-29 17:05:01,0.0
4270,-42,-698,-45,20,24,2024-01-29 17:05:01,0.0
4284,-71,-671,-17,31,8,2024-01-29 17:05:01,0.0
4306,-52,-613,-20,28,4,2024-01-29 17:05:01,0.0
4300,-60,-524,-47,6,13,2024-01-29 17:05:01,0.0
4333,6,-581,-92,8,15,2024-01-29 17:05:01,0.0
4308,-52,-589,-115,15,15,2024-01-29 17:05:01,0.0
4281,-144,-613,-107,40,3,2024-01-29 17:05:01,0.0
4347,-200,-672,-27,21,-36,2024-01-29 17:05:01,0.0
4311,-116,-645,38,48,-29,2024-01-29 17:05:01,0.0
4300,35,-619,55,64,6,2024-01-29 17:05:01,0.0
4287,-157,-651,11,109,11,2024-01-29 17:05:01,0.0
4330,8,-545,66,15,-35,2024-01-29 17:05:01,0.0
4159,-17,-638,-4,190,-151,2024-01-29 17:05:02,0.0
4337,122,-485,-20,-35,106,2024-01-29 17:05:02,0.0
4409,-6,-555,-161,-25,-11,2024-01-29 17:05:02,0.0
4259,18,-478,-214,-36,21,2024-01-29 17:05:02,0.0
4350,-234,-524,-157,-42,9,2024-01-29 17:05:02,0.0
4322,-190,-521,-44,-83,-3,2024-01-29 17:05:02,0.0
4270,-57,-406,55,-38,-16,2024-01-29 17:05:02,0.0
4479,-44,-544,68,-62,26,2024-01-29 17:05:02,0.0
4323,20,-406,77,39,9,2024-01-29 17:05:02,0.0
4228,53,-240,-16,-18,14,2024-01-29 17:05:02,0.0
4338,103,-429,-99,-153,-30,2024-01-29 17:05:02,0.0
4213,27,-402,-109,-185,37,2024-01-29 17:05:02,0.0
4337,-38,-293,-100,-257,56,2024-01-29 17:05:02,0.0
4256,-152,-229,-63,-203,9,2024-01-29 17:05:02,0.0
4262,-59,-407,-2,-329,18,2024-01-29 17:05:02,0.0
4227,-52,-535,12,-247,5,2024-01-29 17:05:02,0.0
4227,62,-660,-25,-407,-2,2024-01-29 17:05:02,0.0
4324,-173,-928,15,-441,12,2024-01-29 17:05:03,0.0
4184,-30,-1031,21,-428,8,2024-01-29 17:05:03,0.0
4232,-30,-1049,42,-445,33,2024-01-29 17:05:03,0.0
4166,-93,-998,71,-388,22,2024-01-29 17:05:03,0.0
4106,19,-995,43,-432,10,2024-01-29 17:05:03,0.0
4018,13,-975,-27,-285,1,2024-01-29 17:05:03,0.0
4200,54,-772,-104,-308,-29,2024-01-29 17:05:03,0.0
4047,-121,-896,-117,-320,-42,2024-01-29 17:05:03,0.0
3865,-170,-1037,-53,-425,-14,2024-01-29 17:05:03,0.0
3795,-164,-863,-33,-406,-10,2024-01-29 17:05:03,0.0
3637,-53,-894,-7,-570,5,2024-01-29 17:05:03,0.0
3797,-24,-761,46,-554,23,2024-01-29 17:05:03,0.0
3173,-283,-900,199,-684,30,2024-01-29 17:05:03,0.0
3674,727,-1612,5,-1377,-117,2024-01-29 17:05:03,0.0
2537,11,-1270,274,-1399,-31,2024-01-29 17:05:03,0.0
-120,-356,-687,850,-2669,-198,2024-01-29 17:05:03,0.0
680,-311,-1139,1004,-2124,-432,2024-01-29 17:05:03,0.0
1685,2893,-2267,-1481,-4281,1279,2024-01-29 17:05:03,0.0
5256,-1995,-4664,-42,-7483,81,2024-01-29 17:05:04,0.0
-946,-2776,-3774,1248,3767,280,2024-01-29 17:05:04,0.0
-5983,988,-6472,876,3248,-862,2024-01-29 17:05:04,0.0
1300,-193,-4744,-57,1503,852,2024-01-29 17:05:04,0.0
-2050,-144,-5517,-804,1868,-298,2024-01-29 17:05:04,0.0
-2484,-644,-30,-303,-1464,-183,2024-01-29 17:05:04,0.0
1832,-248,-1212,168,-1252,168,2024-01-29 17:05:04,0.0
-173,256,-3266,87,747,-128,2024-01-29 17:05:04,0.0
319,-71,-4320,50,-414,58,2024-01-29 17:05:04,0.0
720,-6,-5222,-126,-380,-2,2024-01-29 17:05:04,0.0
1069,-360,-4935,96,-4,-59,2024-01-29 17:05:04,0.0
437,-166,-3994,25,161,-50,2024-01-29 17:05:04,0.0
677,-58,-3651,65,167,-34,2024-01-29 17:05:04,0.0
564,-113,-4203,-41,-91,-47,2024-01-29 17:05:04,0.0
402,-394,-4295,74,-33,-7,2024-01-29 17:05:04,0.0
595,-149,-4439,71,-76,-18,2024-01-29 17:05:04,0.0
403,-248,-4383,-35,-159,-26,2024-01-29 17:05:04,0.0
549,-202,-3971,-31,-11,10,2024-01-29 17:05:05,0.0
610,-291,-4245,-68,-105,23,2024-01-29 17:05:05,0.0
414,-157,-4210,-128,-38,32,2024-01-29 17:05:05,0.0
573,-327,-4370,-53,-140,2,2024-01-29 17:05:05,0.0
420,-131,-4297,-84,115,18,2024-01-29 17:05:05,0.0
441,-247,-4257,-47,-56,5,2024-01-29 17:05:05,0.0
555,-182,-4202,-38,-4,4,2024-01-29 17:05:05,0.0
434,-126,-4243,-41,-13,14,2024-01-29 17:05:05,0.0
602,-191,-4161,-44,28,4,2024-01-29 17:05:05,
483,-163,-4210,-20,23,6,2024-01-29 17:05:05,0.0
514,-272,-4166,-13,-31,-23,2024-01-29 17:05:05,0.0
549,-226,-4215,-15,51,4,2024-01-29 17:05:05,0.0
555,-166,-4192,-44,17,12,2024-01-29 17:05:05,0.0
618,-170,-4209,-61,0,8,2024-01-29 17:05:05,0.0
540,-187,-4178,-27,49,14,2024-01-29 17:05:05,0.0
689,-179,-4202,-38,-11,-1,2024-01-29 17:05:05,0.0
723,-218,-4168,-31,302,11,2024-01-29 17:05:05,0.0
531,-211,-4154,-61,153,-3,2024-01-29 17:05:05,0.0
773,-185,-4200,-52,57,14,2024-01-29 17:05:06,0.0
712,-155,-4218,-43,59,21,2024-01-29 17:05:06,0.0
757,-194,-4146,-54,18,10,2024-01-29 17:05:06,0.0
736,-227,-4242,-32,-27,5,2024-01-29 17:05:06,0.0
794,-210,-4183,-39,65,8,2024-01-29 17:05:06,0.0
803,-198,-4186,-58,54,16,2024-01-29 17:05:06,0.0
774,-176,-4172,-56,71,25,2024-01-29 17:05:06,0.0
774,-212,-4174,-53,11,17,2024-01-29 17:05:06,0.0
951,-166,-4171,-47,-1,12,2024-01-29 17:05:06,0.0
766,-143,-4071,-47,-39,7,2024-01-29 17:05:06,0.0
865,-182,-4119,-2,10,8,2024-01-29 17:05:06,0.0
850,-174,-4185,-13,-6,5,2024-01-29 17:05:06,0.0
854,-184,-4180,-12,-29,8,2024-01-29 17:05:06,0.0
872,-195,-4131,-26,-37,-2,2024-01-29 17:05:06,0.0
855,-244,-4166,-25,-29,1,2024-01-29 17:05:06,0.0
770,-161,-4138,-63,-59,21,2024-01-29 17:05:06,0.0
888,-292,-4196,-66,-38,11,2024-01-29 17:05:06,0.0
863,-151,-4108,-52,-4,27,2024-01-29 17:05:07,0.0
890,-208,-4053,-90,-21,17,2024-01-29 17:05:07,0.0
891,-218,-4111,-47,-29,14,2024-01-29 17:05:07,0.0
851,-173,-4142,-24,-47,5,2024-01-29 17:05:07,0.0
814,-198,-4227,-15,-56,-14,2024-01-29 17:05:07,0.0
808,-205,-4208,-31,-14,6,2024-01-29 17:05:07,0.0
853,-165,-4170,-34,-6,9,2024-01-29 17:05:07,0.0
855,-205,-4147,-39,24,7,2024-01-29 17:05:07,0.0
897,-193,-4156,-16,-26,0,2024-01-29 17:05:07,0.0
852,-214,-4134,-17,-40,3,2024-01-29 17:05:07,0.0
855,-199,-4202,-27,-36,7,2024-01-29 17:05:07,0.0
820,-176,-4186,-37,-26,6,2024-01-29 17:05:07,0.0
862,-205,-4198,-61,-7,15,2024-01-29 17:05:07,0.0
831,-168,-4181,-38,2,17,2024-01-29 17:05:07,0.0
852,-196,-4113,-62,23,10,2024-01-29 17:05:07,0.0
870,-224,-4166,-17,-17,11,2024-01-29 17:05:07,0.0
883,-181,-4108,-44,-18,8,2024-01-29 17:05:07,0.0
879,-210,-4132,-44,-24,8,2024-01-29 17:05:07,0.0
870,-175,-4137,-21,-18,10,2024-01-29 17:05:08,0.0
907,-171,-4205,-56,-5,6,2024-01-29 17:05:08,0.0
898,-235,-4170,-33,-21,12,2024-01-29 17:05:08,0.0
891,-192,-4138,-35,-18,7,2024-01-29 17:05:08,0.0
845,-210,-4168,-25,-70,6,2024-01-29 17:05:08,0.0
895,-187,-4154,-18,-83,6,2024-01-29 17:05:08,0.0
861,-184,-4147,-37,-48,7,2024-01-29 17:05:08,0.0
822,-196,-4179,-22,-34,-3,2024-01-29 17:05:08,0.0
880,-233,-4176,-21,-22,-1,2024-01-29 17:05:08,0.0
872,-244,-4159,-29,6,8,2024-01-29 17:05:08,0.0
859,-254,-4164,-31,-26,8,2024-01-29 17:05:08,0.0
849,-220,-4164,-41,-13,7,2024-01-29 17:05:08,0.0
879,-188,-4173,-46,-19,11,2024-01-29 17:05:08,0.0
854,-205,-4179,-57,-15,1,2024-01-29 17:05:08,0.0
871,-228,-4164,-61,-51,13,2024-01-29 17:05:08,0.0
903,-221,-4100,-81,-41,14,2024-01-29 17:05:08,0.0
867,-180,-4032,-71,-58,21,2024-01-29 17:05:08,0.0
865,-180,-4141,-36,-52,-3,2024-01-29 17:05:09,0.0
858,-205,-4177,-11,-13,-5,2024-01-29 17:05:09,0.0
881,-220,-4220,-23,-7,0,2024-01-29 17:05:09,0.0
862,-216,-4190,-21,-3,1,2024-01-29 17:05:09,0.0
889,-236,-4096,-12,-40,1,2024-01-29 17:05:09,0.0
896,-209,-4103,-25,-42,-7,2024-01-29 17:05:09,0.0
849,-219,-4191,-19,-92,-18,2024-01-29 17:05:09,0.0
791,-200,-4223,-20,-102,13,2024-01-29 17:05:09,0.0
822,-217,-4197,-63,-46,13,2024-01-29 17:05:09,0.0
810,-219,-4194,-40,-2,15,2024-01-29 17:05:09,0.0
824,-234,-4120,-39,-5,9,2024-01-29 17:05:09,0.0
833,-213,-4105,-16,-36,11,2024-01-29 17:05:09,0.0
824,-235,-4153,-53,-59,8,2024-01-29 17:05:09,0.0
877,-226,-4167,-31,-16,10,2024-01-29 17:05:09,0.0
834,-235,-4131,-26,-8,4,2024-01-29 17:05:09,0.0
835,-241,-4145,-37,-39,5,2024-01-29 17:05:09,0.0
781,-230,-4167,-41,-36,17,2024-01-29 17:05:09,0.0
848,-236,-4251,-42,4,27,2024-01-29 17:05:09,0.0
823,-189,-4206,-42,16,23,2024-01-29 17:05:10,0.0
873,-251,-4137,-59,30,13,2024-01-29 17:05:10,0.0
818,-242,-4077,-36,22,-2,2024-01-29 17:05:10,0.0
866,-206,-4106,-15,-27,-25,2024-01-29 17:05:10,0.0
840,-223,-4164,-6,-34,-31,2024-01-29 17:05:10,0.0
869,-224,-4193,-11,-25,-22,2024-01-29 17:05:10,0.0
869,-246,-4088,-22,-63,-2,2024-01-29 17:05:10,0.0
859,-240,-4141,1,-123,-11,2024-01-29 17:05:10,0.0
845,-279,-4197,-57,-77,-16,2024-01-29 17:05:10,0.0
802,-256,-4206,-28,-49,6,2024-01-29 17:05:10,0.0
784,-231,-4172,-31,-14,12,2024-01-29 17:05:10,0.0
826,-271,-4208,-56,6,19,2024-01-29 17:05:10,0.0
831,-266,-4171,-55,10,12,2024-01-29 17:05:10,0.0
853,-251,-4139,-3,6,9,2024-01-29 17:05:10,0.0
839,-256,-4120,-29,-43,0,2024-01-29 17:05:10,0.0
862,-258,-4129,-12,-5,6,2024-01-29 17:05:10,0.0
857,-277,-4199,-45,-9,6,2024-01-29 17:05:10,0.0
840,-267,-4147,-17,-25,4,2024-01-29 17:05:11,0.0
874,-287,-4155,-16,-39,-5,2024-01-29 17:05:11,0.0
830,-288,-4212,-20,-62,0,2024-01-29 17:05:11,0.0
830,-266,-4140,-18,-16,-3,2024-01-29 17:05:11,
813,-294,-4146,-21,-28,-5,2024-01-29 17:05:11,0.0
870,-271,-4094,-2,8,-11,2024-01-29 17:05:11,0.0
845,-330,-4170,6,13,0,2024-01-29 17:05:11,0.0
795,-344,-4228,31,4,-16,2024-01-29 17:05:11,0.0
888,-343,-4097,-3,-27,-31,2024-01-29 17:05:11,0.0
866,-370,-4031,-6,-68,-19,2024-01-29 17:05:11,0.0
893,-331,-4099,-62,-35,-14,2024-01-29 17:05:11,0.0
866,-332,-4172,-57,-78,-24,2024-01-29 17:05:11,0.0
805,-364,-4175,-11,-63,-35,2024-01-29 17:05:11,0.0
820,-337,-4235,19,-41,-24,2024-01-29 17:05:11,0.0
844,-304,-4099,-6,-28,-29,2024-01-29 17:05:11,0.0
871,-327,-4083,7,-30,-18,2024-01-29 17:05:11,0.0
837,-380,-4117,-40,-9,-10,2024-01-29 17:05:11,0.0
813,-343,-4202,-48,2,-8,2024-01-29 17:05:11,0.0
832,-340,-4129,-43,1,16,2024-01-29 17:05:12,0.0
857,-345,-4126,-56,5,17,2024-01-29 17:05:12,0.0
865,-332,-4173,-50,-11,3,2024-01-29 17:05:12,0.0
872,-329,-4129,-53,-25,6,2024-01-29 17:05:12,0.0
852,-324,-4180,-46,-2,7,2024-01-29 17:05:12,0.0
874,-349,-4174,-59,-27,9,2024-01-29 17:05:12,0.0
867,-365,-4191,-36,-22,15,2024-01-29 17:05:12,0.0
901,-350,-4213,-87,8,27,2024-01-29 17:05:12,0.0
888,-305,-4063,-59,-62,17,2024-01-29 17:05:12,0.0
902,-322,-4098,-37,-24,27,2024-01-29 17:05:12,0.0
871,-356,-4170,-48,0,20,2024-01-29 17:05:12,0.0
855,-377,-4214,-35,-22,5,2024-01-29 17:05:12,0.0
893,-318,-4145,17,9,-1,2024-01-29 17:05:12,0.0
887,-312,-4139,-23,-25,12,2024-01-29 17:05:12,0.0
915,-310,-4094,-47,-51,22,2024-01-29 17:05:12,0.0
899,-361,-4101,-52,-20,33,2024-01-29 17:05:12,0.0
888,-372,-4170,-71,-23,28,2024-01-29 17:05:12,0.0
919,-319,-4151,-58,7,30,2024-01-29 17:05:13,0.0
867,-281,-4132,-62,-4,28,2024-01-29 17:05:13,0.0
914,-360,-4132,-19,51,27,2024-01-29 17:05:13,0.0
937,-354,-4148,-53,-27,6,2024-01-29 17:05:13,0.0
928,-304,-4107,-66,-18,14,2024-01-29 17:05:13,0.0
912,-327,-4159,-64,-15,28,2024-01-29 17:05:13,0.0
939,-285,-4219,-83,-2,28,2024-01-29 17:05:13,0.0
924,-332,-4161,-40,12,18,2024-01-29 17:05:13,0.0
946,-310,-4108,-26,7,16,2024-01-29 17:05:13,0.0
1004,-323,-4060,-48,-26,2,2024-01-29 17:05:13,0.0
990,-328,-4178,-18,-50,1,2024-01-29 17:05:13,0.0
901,-285,-4192,-41,-12,6,2024-01-29 17:05:13,0.0
909,-301,-4190,-31,19,3,2024-01-29 17:05:13,0.0
958,-313,-4073,-33,-17,3,2024-01-29 17:05:13,0.0
979,-342,-4020,-35,-63,21,2024-01-29 17:05:13,0.0
948,-310,-4352,-27,-57,19,2024-01-29 17:05:13,0.0
924,-290,-4129,-53,43,29,2024-01-29 17:05:13,0.0
942,-321,-4206,-81,8,21,2024-01-29 17:05:13,0.0
999,-296,-4125,-36,-36,35,2024-01-29 17:05:14,0.0
994,-303,-3989,-74,-12,32,2024-01-29 17:05:14,0.0
965,-357,-4123,-54,-70,14,2024-01-29 17:05:14,0.0
951,-307,-4121,-41,-45,7,2024-01-29 17:05:14,0.0
920,-305,-4222,-29,-37,7,2024-01-29 17:05:14,0.0
979,-372,-4175,-35,-56,-11,2024-01-29 17:05:14,0.0
932,-196,-4091,-47,-44,6,2024-01-29 17:05:14,0.0
985,-257,-4121,-89,-40,10,2024-01-29 17:05:14,0.0
927,-309,-4170,-81,6,18,2024-01-29 17:05:14,0.0
948,-276,-4209,-47,14,31,2024-01-29 17:05:14,0.0
939,-277,-4093,-35,2,16,2024-01-29 17:05:14,0.0
1014,-253,-4085,-12,-55,10,2024-01-29 17:05:14,0.0
979,-321,-4181,8,-5,-17,2024-01-29 17:05:14,0.0
971,-312,-4251,20,24,-21,2024-01-29 17:05:14,0.0
914,-287,-4256,-9,58,16,2024-01-29 17:05:14,0.0
948,-230,-4607,-5,-69,29,2024-01-29 17:05:14,0.0
837,-24,-4662,-66,-139,47,2024-01-29 17:05:14,0.0
528,70,-4846,44,-279,97,2024-01-29 17:05:15,0.0
425,329,-4706,129,-436,83,2024-01-29 17:05:15,0.0
256,-391,-4055,553,-775,-103,2024-01-29 17:05:15,0.0
459,-530,-4133,773,-682,-433,2024-01-29 17:05:15,0.0
729,-1294,-3923,1230,-480,-507,2024-01-29 17:05:15,0.0
337,-1807,-3654,1531,-329,-767,2024-01-29 17:05:15,0.0
869,-1905,-4022,1535,-22,-430,2024-01-29 17:05:15,0.0
633,-2223,-3601,1112,108,-222,2024-01-29 17:05:15,0.0
412,-2804,-3693,1006,62,-38,2024-01-29 17:05:15,0.0
363,-1933,-3383,504,92,168,2024-01-29 17:05:15,0.0
-152,-2422,-2778,-17,-313,270,2024-01-29 17:05:15,0.0
346,-2180,-3320,-144,-187,294,2024-01-29 17:05:15,0.0
-32,-2472,-3532,-479,-301,185,2024-01-29 17:05:15,0.0
-207,-1754,-2931,-1039,-325,116,2024-01-29 17:05:17,0.0
89,-2843,-3704,-891,1,168,2024-01-29 17:05:17,0.0
-237,-1233,-3399,-986,262,126,2024-01-29 17:05:17,0.0
490,-1368,-3950,-914,106,-118,2024-01-29 17:05:17,0.0
817,-1230,-4730,-1025,445,-299,2024-01-29 17:05:17,0.0
375,-1408,-4025,-1070,577,-178,2024-01-29 17:05:17,0.0
1340,-753,-4560,-1135,1434,83,2024-01-29 17:05:17,0.0
910,-1269,-3830,-1090,1407,301,2024-01-29 17:05:17,0.0
1499,-925,-4224,-909,1279,86,2024-01-29 17:05:17,0.0
5523,1198,-2668,209,2630,-98,2024-01-29 17:05:17,0.0
5362,81,-1649,-468,1853,-181,2024-01-29 17:05:17,0.0
4059,882,-825,-1091,1247,79,2024-01-29 17:05:17,0.0
4046,-959,-1265,-1077,316,70,2024-01-29 17:05:17,0.0
4397,-360,-730,168,345,232,2024-01-29 17:05:17,0.0
4677,228,-592,458,-493,113,2024-01-29 17:05:17,0.0
4737,-357,-490,896,55,269,2024-01-29 17:05:17,0.0
4134,-12,-105,925,-185,247,2024-01-29 17:05:17,0.0
3834,-130,-516,756,-185,266,2024-01-29 17:05:17,0.0
3441,136,-864,385,-632,236,2024-01-29 17:05:17,0.0
3300,-752,-1106,217,134,-157,2024-01-29 17:05:17,0.0
3146,-788,28,418,517,-178,2024-01-29 17:05:17,
2812,-538,3,571,145,-455,2024-01-29 17:05:17,0.0
3799,-1086,-292,556,-699,88,2024-01-29 17:05:18,0.0
4333,-593,-1096,492,-695,-518,2024-01-29 17:05:18,0.0
4602,-339,-986,574,1084,-286,2024-01-29 17:05:18,0.0
3195,131,-660,77,305,-185,2024-01-29 17:05:18,0.0
4767,-679,90,-106,-64,-421,2024-01-29 17:05:18,0.0
4939,326,-832,-352,-938,-567,2024-01-29 17:05:18,0.0
3991,241,-1289,-359,556,29,2024-01-29 17:05:18,0.0
3842,1064,-721,-266,137,38,2024-01-29 17:05:18,0.0
4808,417,-261,-303,393,-40,2024-01-29 17:05:18,0.0
4322,910,-75,-277,363,-33,2024-01-29 17:05:18,0.0
4210,242,-734,0,-230,-30,2024-01-29 17:05:18,0.0
3828,764,-500,111,476,110,2024-01-29 17:05:18,0.0
4998,784,-1519,-456,502,-147,2024-01-29 17:05:18,0.0
3131,-553,-34,-105,-47,160,2024-01-29 17:05:18,0.0
4628,-188,-178,482,-191,281,2024-01-29 17:05:18,0.0
4219,80,-263,388,221,-272,2024-01-29 17:05:18,0.0
4515,343,-108,121,-504,27,2024-01-29 17:05:18,0.0
4062,32,-100,-52,-397,157,2024-01-29 17:05:18,0.0
4332,385,-98,-293,-414,246,2024-01-29 17:05:18,0.0
4714,-1162,-410,253,121,195,2024-01-29 17:05:19,0.0
4156,232,-549,-138,-27,110,2024-01-29 17:05:19,0.0
4285,-142,-601,136,-37,11,2024-01-29 17:05:19,0.0
4128,-175,-381,247,-82,3,2024-01-29 17:05:19,0.0
4393,-97,-582,180,-468,-8,2024-01-29 17:05:19,0.0
4267,237,-970,55,-447,-20,2024-01-29 17:05:19,0.0
4353,-24,-925,17,-100,58,2024-01-29 17:05:19,0.0
4221,89,-959,2,-266,64,2024-01-29 17:05:19,0.0
4252,-91,-1168,-150,-83,65,2024-01-29 17:05:19,0.0
4235,-60,-967,-137,-233,72,2024-01-29 17:05:19,0.0
4323,-3,-1101,-154,-142,28,2024-01-29 17:05:19,0.0
4179,-77,-1218,-178,16,48,2024-01-29 17:05:19,0.0
4138,-343,-860,-75,-15,-16,2024-01-29 17:05:19,0.0
4473,-143,-972,41,8,-44,2024-01-29 17:05:19,0.0
4109,162,-914,-51,72,94,2024-01-29 17:05:19,0.0
4364,-253,-877,-11,-51,82,2024-01-29 17:05:19,0.0
4268,-90,-865,16,64,2,2024-01-29 17:05:19,0.0
4207,-28,-764,43,57,-9,2024-01-29 17:05:20,0.0
4315,-215,-920,65,83,-9,2024-01-29 17:05:20,0.0
4242,-157,-794,130,108,-16,2024-01-29 17:05:20,0.0
4352,18,-789,100,126,5,2024-01-29 17:05:20,0.0
4204,-99,-742,19,165,12,2024-01-29 17:05:20,0.0
4309,62,-673,-91,148,15,2024-01-29 17:05:20,0.0
4301,-77,-609,-217,40,60,2024-01-29 17:05:20,0.0
4328,-23,-579,-313,6,32,2024-01-29 17:05:20,0.0
4197,-95,-580,-349,-46,50,2024-01-29 17:05:20,0.0
4349,-155,-543,-342,-75,18,2024-01-29 17:05:20,0.0
4306,-177,-613,-283,-6,39,2024-01-29 17:05:20,0.0
4316,-150,-599,-266,52,11,2024-01-29 17:05:20,0.0
4363,-206,-641,-137,75,21,2024-01-29 17:05:20,0.0
4372,-228,-626,-28,130,3,2024-01-29 17:05:20,0.0
4306,-125,-559,13,143,-7,2024-01-29 17:05:20,0.0
4325,-52,-539,48,85,-8,2024-01-29 17:05:20,0.0
4319,-144,-542,53,145,-29,2024-01-29 17:05:20,0.0
4245,0,-505,16,79,-1,2024-01-29 17:05:20,0.0
4374,-71,-382,-21,-14,-8,2024-01-29 17:05:21,0.0
4329,-59,-399,-42,-3,16,2024-01-29 17:05:21,0.0
4262,-103,-389,-27,-56,15,2024-01-29 17:05:21,0.0
4346,-59,-322,-10,-89,20,2024-01-29 17:05:21,0.0
4304,-57,-389,-37,-120,3,2024-01-29 17:05:21,0.0
4346,-81,-483,-31,-189,21,2024-01-29 17:05:21,0.0
4342,-113,-479,-3,-124,4,2024-01-29 17:05:21,0.0
4366,-112,-576,11,-102,-15,2024-01-29 17:05:21,0.0
4264,-59,-494,18,-75,20,2024-01-29 17:05:21,0.0
4315,-34,-471,-35,-132,7,2024-01-29 17:05:21,0.0
4372,-77,-573,-69,-70,1,2024-01-29 17:05:21,0.0
4206,-36,-556,-136,-80,21,2024-01-29 17:05:21,0.0
4310,-242,-565,-89,-135,26,2024-01-29 17:05:21,0.0
4349,-332,-664,94,-62,2,2024-01-29 17:05:21,0.0
4289,-16,-762,190,-105,-12,2024-01-29 17:05:21,0.0
4307,71,-824,132,32,1,2024-01-29 17:05:21,0.0
4304,32,-702,-19,-34,-4,2024-01-29 17:05:21,0.0
4285,-5,-741,-127,7,21,2024-01-29 17:05:22,0.0
4296,-171,-643,-163,-35,18,2024-01-29 17:05:22,0.0
4294,-132,-664,-132,27,13,2024-01-29 17:05:22,0.0
4293,-145,-569,-92,-57,14,2024-01-29 17:05:22,0.0
4306,-91,-629,-64,-56,17,2024-01-29 17:05:22,0.0
4309,-77,-670,-83,-110,18,2024-01-29 17:05:22,0.0
4313,-89,-649,-102,-38,24,2024-01-29 17:05:22,0.0
4313,-106,-687,-112,-76,15,2024-01-29 17:05:22,0.0
4288,-129,-709,-94,-53,21,2024-01-29 17:05:22,0.0
4304,-130,-665,-69,-47,6,2024-01-29 17:05:22,0.0
4267,-127,-688,-26,-56,17,2024-01-29 17:05:22,0.0
4316,-102,-754,-1,-11,7,2024-01-29 17:05:22,0.0
4249,-124,-681,9,-65,6,2024-01-29 17:05:22,0.0
4357,-99,-752,9,-36,3,2024-01-29 17:05:22,0.0
4277,-112,-729,6,-30,4,2024-01-29 17:05:22,0.0
4302,-110,-718,-20,-19,10,2024-01-29 17:05:22,0.0
4291,-128,-658,-41,-18,17,2024-01-29 17:05:22,0.0
4306,-98,-742,-53,7,13,2024-01-29 17:05:22,0.0
4283,-106,-655,-55,-14,16,2024-01-29 17:05:23,0.0
4313,-101,-709,-57,-30,10,2024-01-29 17:05:23,0.0
4252,-102,-686,-63,-44,10,2024-01-29 17:05:23,0.0
4290,-101,-730,-69,-22,7,2024-01-29 17:05:23,0.0
4292,-83,-692,-59,3,6,2024-01-29 17:05:23,0.0
4298,-94,-686,-52,-18,7,2024-01-29 17:05:23,0.0
4306,-114,-712,-52,-3,1,2024-01-29 17:05:23,0.0
4309,-91,-672,-58,-59,10,2024-01-29 17:05:23,0.0
4300,-79,-732,-48,-1,11,2024-01-29 17:05:23,0.0
4306,-77,-700,-51,-22,10,2024-01-29 17:05:23,
4292,-81,-646,-47,3,4,2024-01-29 17:05:23,0.0
4298,-70,-683,-44,-22,9,2024-01-29 17:05:23,0.0
4285,-63,-668,-48,5,7,2024-01-29 17:05:23,0.0
4316,-112,-672,-51,7,9,2024-01-29 17:05:23,0.0
4272,-90,-665,-37,0,8,2024-01-29 17:05:23,0.0
4302,-75,-655,-54,1,5,2024-01-29 17:05:23,0.0
4292,-77,-650,-64,-16,6,2024-01-29 17:05:23,0.0
4295,-110,-639,-61,-3,7,2024-01-29 17:05:24,0.0
4305,-92,-616,-58,-20,7,2024-01-29 17:05:24,0.0
4302,-96,-656,-56,-12,8,2024-01-29 17:05:24,0.0
4319,-95,-664,-53,-27,8,2024-01-29 17:05:24,0.0
4313,-100,-652,-51,-17,8,2024-01-29 17:05:24,0.0
4269,-93,-631,-39,-15,8,2024-01-29 17:05:24,0.0
4292,-93,-594,-47,-53,6,2024-01-29 17:05:24,0.0
4327,-106,-630,-35,-32,10,2024-01-29 17:05:24,0.0
4290,-85,-577,-39,-58,7,2024-01-29 17:05:24,0.0
4342,-82,-635,-34,-68,9,2024-01-29 17:05:24,0.0
4267,-89,-650,-35,-39,7,2024-01-29 17:05:24,0.0
4313,-95,-666,-13,-42,10,2024-01-29 17:05:24,0.0
4241,-87,-619,-13,-34,3,2024-01-29 17:05:24,0.0
4324,-96,-645,-11,-74,6,2024-01-29 17:05:24,0.0
4264,-55,-668,-23,-24,14,2024-01-29 17:05:24,0.0
4289,-78,-603,-25,-54,12,2024-01-29 17:05:24,0.0
4293,-79,-664,-18,-28,14,2024-01-29 17:05:24,0.0
4282,-66,-660,-32,-81,8,2024-01-29 17:05:24,0.0
4311,-86,-652,-29,6,5,2024-01-29 17:05:25,0.0
4278,-102,-634,-26,-61,6,2024-01-29 17:05:25,0.0
4299,-81,-698,-29,-39,5,2024-01-29 17:05:25,0.0
4316,-85,-709,-28,-46,6,2024-01-29 17:05:25,0.0
4305,-107,-673,-32,-15,8,2024-01-29 17:05:25,0.0
4276,-115,-657,-31,-35,9,2024-01-29 17:05:25,0.0
4342,-65,-720,-30,-63,9,2024-01-29 17:05:25,0.0
4294,-75,-667,-40,-31,12,2024-01-29 17:05:25,0.0
4313,-97,-693,-43,-1,8,2024-01-29 17:05:25,0.0
4278,-90,-654,-42,-6,13,2024-01-29 17:05:25,0.0
4299,-71,-689,-43,-17,11,2024-01-29 17:05:25,0.0
4292,-109,-687,-43,-10,11,2024-01-29 17:05:25,0.0
4283,-103,-662,-33,-18,10,2024-01-29 17:05:25,0.0
4313,-87,-697,-39,13,4,2024-01-29 17:05:25,0.0
4301,-91,-652,-43,-8,9,2024-01-29 17:05:25,0.0
4289,-96,-581,-47,9,9,2024-01-29 17:05:25,0.0
4309,-105,-657,-39,-12,6,2024-01-29 17:05:25,0.0
4352,-95,-647,-42,10,8,2024-01-29 17:05:26,0.0
4307,-115,-670,-43,-34,7,2024-01-29 17:05:26,0.0
4324,-114,-667,-42,4,8,2024-01-29 17:05:26,0.0
4303,-111,-659,-42,-1,10,2024-01-29 17:05:26,0.0
4299,-80,-625,-40,-10,12,2024-01-29 17:05:26,0.0
4312,-90,-629,-33,0,16,2024-01-29 17:05:26,0.0
4285,-123,-614,-26,15,12,2024-01-29 17:05:26,0.0
4321,-85,-619,-25,-1,13,2024-01-29 17:05:26,0.0
4299,-100,-571,-23,-1,15,2024-01-29 17:05:26,0.0
4316,-111,-571,-24,-3,8,2024-01-29 17:05:26,0.0
4284,-93,-566,-18,-1,10,2024-01-29 17:05:26,0.0
4314,-71,-517,-14,30,8,2024-01-29 17:05:26,0.0
4323,-116,-574,-24,11,7,2024-01-29 17:05:26,0.0
4307,-101,-516,-33,-10,7,2024-01-29 17:05:26,0.0
4317,-93,-538,-45,-25,5,2024-01-29 17:05:26,0.0
4294,-114,-535,-51,-24,12,2024-01-29 17:05:26,0.0
4333,-124,-508,-45,7,10,2024-01-29 17:05:26,0.0
4311,-107,-538,-38,-29,10,2024-01-29 17:05:26,0.0
4321,-92,-571,-41,-42,8,2024-01-29 17:05:27,0.0
4305,-100,-565,-34,-25,7,2024-01-29 17:05:27,0.0
4320,-108,-532,-47,-42,10,2024-01-29 17:05:27,0.0
4329,-90,-532,-46,-47,9,2024-01-29 17:05:27,0.0
4300,-76,-501,-48,-42,5,2024-01-29 17:05:27,0.0
4272,-111,-509,-39,-48,10,2024-01-29 17:05:27,0.0
4319,-110,-586,-32,-40,7,2024-01-29 17:05:27,0.0
4288,-116,-531,-31,-45,6,2024-01-29 17:05:27,0.0
4335,-74,-566,-48,-67,1,2024-01-29 17:05:27,0.0
4309,-97,-601,-49,-22,8,2024-01-29 17:05:27,0.0
4287,-108,-560,-46,-81,6,2024-01-29 17:05:27,0.0
4336,-94,-618,-32,-38,3,2024-01-29 17:05:27,0.0
4328,-98,-600,-25,-62,6,2024-01-29 17:05:27,0.0
4304,-98,-617,-26,-51,2,2024-01-29 17:05:27,0.0
4284,-86,-625,-31,-75,9,2024-01-29 17:05:27,0.0
4275,-47,-602,-44,-88,4,2024-01-29 17:05:27,0.0
4308,-119,-670,-56,-139,17,2024-01-29 17:05:27,0.0
4301,-72,-643,-64,-28,17,2024-01-29 17:05:28,0.0
4327,-97,-620,-63,28,23,2024-01-29 17:05:28,0.0
4331,-113,-635,-18,-45,35,2024-01-29 17:05:28,0.0
4207,-41,-428,-40,-56,18,2024-01-29 17:05:28,0.0
4328,-21,-520,-79,-204,13,2024-01-29 17:05:28,0.0
4342,-216,-427,-36,-61,20,2024-01-29 17:05:28,0.0
4285,-53,-417,-14,-227,6,2024-01-29 17:05:28,0.0
4179,-76,-525,-22,-261,13,2024-01-29 17:05:28,0.0
4332,-57,-600,-53,-334,9,2024-01-29 17:05:28,0.0
4233,-63,-610,-73,-218,-6,2024-01-29 17:05:28,0.0
4268,-159,-657,-35,-246,-6,2024-01-29 17:05:28,0.0
4182,-98,-885,17,-247,3,2024-01-29 17:05:28,0.0
4454,-51,-1023,-2,-304,12,2024-01-29 17:05:28,0.0
4221,-173,-1127,34,-390,63,2024-01-29 17:05:28,0.0
4438,128,-1068,-98,-459,38,2024-01-29 17:05:28,0.0
3978,-107,-908,-146,-437,41,2024-01-29 17:05:28,0.0
4050,-107,-897,-132,-494,24,2024-01-29 17:05:28,0.0
3928,-94,-886,-83,-430,17,2024-01-29 17:05:28,0.0
4091,-63,-1047,-76,-364,10,2024-01-29 17:05:29,0.0
4265,-60,-901,-118,-137,1,2024-01-29 17:05:29,0.0
4385,-43,-543,-133,-84,-95,2024-01-29 17:05:29,0.0
3760,-134,-472,-87,95,-21,2024-01-29 17:05:29,0.0
3034,-16,-696,3,-351,2,2024-01-29 17:05:29,
1664,-466,-1149,211,-721,-82,2024-01-29 17:05:29,0.0
-723,133,201,147,-547,-463,2024-01-29 17:05:29,0.0
-453,-679,-1344,548,-1685,-73,2024-01-29 17:05:29,0.0
5250,1285,-3539,323,-2639,419,2024-01-29 17:05:29,0.0
7286,-517,-8711,284,-6166,875,2024-01-29 17:05:29,0.0
6753,-370,-1734,-192,-5405,722,2024-01-29 17:05:29,0.0
-202,-116,4267,735,-2409,-560,2024-01-29 17:05:29,0.0
-945,-285,-13137,759,-849,279,2024-01-29 17:05:29,0.0
-4423,-4686,-11941,2321,3495,-253,2024-01-29 17:05:29,0.0
-3206,-917,-3965,50,-524,-661,2024-01-29 17:05:29,0.0
-738,812,-4556,-86,-1263,452,2024-01-29 17:05:29,0.0
-591,-2326,-3881,-30,467,91,2024-01-29 17:05:29,0.0
-319,-467,-1471,-659,-65,-136,2024-01-29 17:05:30,0.0
646,102,-4118,-281,-1233,240,2024-01-29 17:05:30,0.0
556,-1491,-5275,123,-157,287,2024-01-29 17:05:30,0.0
376,-491,-4939,-702,323,-29,2024-01-29 17:05:30,0.0
233,-211,-4524,-180,-53,174,2024-01-29 17:05:30,0.0
510,-585,-3689,-167,-187,252,2024-01-29 17:05:30,0.0
708,-465,-3920,-126,-94,-7,2024-01-29 17:05:30,0.0
488,-394,-3866,52,43,-36,2024-01-29 17:05:30,0.0
281,-483,-4294,-20,-250,-71,2024-01-29 17:05:30,0.0
360,-395,-4243,-46,-228,-28,2024-01-29 17:05:30,0.0
89,-519,-4328,-29,-211,-17,2024-01-29 17:05:30,0.0
195,-468,-4129,-33,-108,-25,2024-01-29 17:05:30,0.0
167,-431,-4284,-99,-151,-3,2024-01-29 17:05:30,0.0
95,-436,-4249,-72,-78,11,2024-01-29 17:05:30,0.0
144,-411,-4193,-83,20,18,2024-01-29 17:05:30,0.0
190,-469,-4160,-68,-10,18,2024-01-29 17:05:30,0.0
193,-473,-4205,-58,-22,13,2024-01-29 17:05:30,0.0
149,-444,-4235,-43,-38,19,2024-01-29 17:05:30,0.0
152,-380,-4122,-42,-16,14,2024-01-29 17:05:31,0.0
185,-380,-4179,-43,-36,3,2024-01-29 17:05:31,0.0
205,-405,-4207,-26,8,13,2024-01-29 17:05:31,0.0
177,-411,-4225,-42,9,13,2024-01-29 17:05:31,0.0
185,-379,-4172,-47,23,11,2024-01-29 17:05:31,0.0
178,-411,-4193,-61,-18,22,2024-01-29 17:05:31,0.0
163,-372,-4196,-56,-22,7,2024-01-29 17:05:31,0.0
234,-390,-4219,-42,6,17,2024-01-29 17:05:31,0.0
209,-424,-4266,-41,-16,16,2024-01-29 17:05:31,0.0
217,-418,-4183,-21,-20,14,2024-01-29 17:05:31,0.0
267,-368,-4187,-43,6,7,2024-01-29 17:05:31,0.0
216,-366,-4248,-51,-10,17,2024-01-29 17:05:31,0.0
235,-409,-4173,-41,25,13,2024-01-29 17:05:31,0.0
234,-392,-4257,-49,-27,11,2024-01-29 17:05:31,0.0
212,-381,-4214,-45,-55,14,2024-01-29 17:05:31,0.0
248,-353,-4150,-51,-49,11,2024-01-29 17:05:31,0.0
237,-342,-4156,-63,3,7,2024-01-29 17:05:31,0.0
235,-366,-4153,-37,-37,11,2024-01-29 17:05:32,0.0
260,-406,-4196,-52,-28,8,2024-01-29 17:05:32,0.0
269,-413,-4128,-33,-34,8,2024-01-29 17:05:32,0.0
253,-381,-4182,-45,-35,10,2024-01-29 17:05:32,0.0
257,-370,-4176,-40,-20,10,2024-01-29 17:05:32,0.0
243,-396,-4161,-43,-1,7,2024-01-29 17:05:32,0.0
220,-401,-4266,-39,-1,10,2024-01-29 17:05:32,0.0
230,-419,-4205,-24,-1,8,2024-01-29 17:05:32,0.0
248,-375,-4214,-25,-15,10,2024-01-29 17:05:32,0.0
250,-358,-4168,-40,-17,7,2024-01-29 17:05:32,0.0
247,-366,-4164,-36,-6,9,2024-01-29 17:05:32,0.0
271,-368,-4210,-48,-1,11,2024-01-29 17:05:32,0.0
269,-357,-4153,-36,-29,8,2024-01-29 17:05:32,0.0
243,-372,-4217,-32,-8,10,2024-01-29 17:05:32,0.0
264,-379,-4244,-46,-2,9,2024-01-29 17:05:32,0.0
267,-371,-4239,-44,-17,9,2024-01-29 17:05:32,0.0
315,-385,-4168,-46,23,16,2024-01-29 17:05:32,0.0
320,-398,-4228,-50,-9,8,2024-01-29 17:05:32,0.0
273,-390,-4225,-36,-8,10,2024-01-29 17:05:33,0.0
294,-431,-4205,-35,-23,12,2024-01-29 17:05:33,0.0
302,-395,-4181,-34,-20,10,2024-01-29 17:05:33,0.0
312,-387,-4186,-40,-22,8,2024-01-29 17:05:33,0.0
303,-357,-4232,-37,-29,6,2024-01-29 17:05:33,0.0
317,-400,-4175,-43,-17,8,2024-01-29 17:05:33,0.0
280,-374,-4188,-42,-46,8,2024-01-29 17:05:33,0.0
277,-395,-4218,-46,-28,7,2024-01-29 17:05:33,0.0
324,-397,-4173,-38,-26,7,2024-01-29 17:05:33,0.0
322,-389,-4156,-44,-28,9,2024-01-29 17:05:33,0.0
324,-371,-4188,-46,6,17,2024-01-29 17:05:33,0.0
310,-371,-4191,-44,-30,11,2024-01-29 17:05:33,0.0
304,-357,-4212,-40,-38,10,2024-01-29 17:05:33,0.0
301,-385,-4221,-45,-41,11,2024-01-29 17:05:33,0.0
288,-396,-4212,-49,-30,9,2024-01-29 17:05:33,0.0
298,-366,-4120,-49,-24,8,2024-01-29 17:05:33,0.0
322,-394,-4184,-48,-36,7,2024-01-29 17:05:33,0.0
277,-401,-4260,-19,-23,8,2024-01-29 17:05:34,0.0
321,-389,-4116,-35,-26,7,2024-01-29 17:05:34,0.0
281,-364,-4121,-35,-27,6,2024-01-29 17:05:34,0.0
279,-385,-4202,-62,7,24,2024-01-29 17:05:34,0.0
273,-396,-4233,-41,-8,10,2024-01-29 17:05:34,0.0
288,-411,-4200,-33,-3,10,2024-01-29 17:05:34,0.0
321,-382,-4222,-24,-2,7,2024-01-29 17:05:34,0.0
315,-392,-4194,-29,-12,3,2024-01-29 17:05:34,0.0
317,-378,-4219,-22,4,5,2024-01-29 17:05:34,0.0
306,-372,-4177,-40,31,10,2024-01-29 17:05:34,0.0
336,-374,-4255,-36,8,5,2024-01-29 17:05:34,0.0
342,-365,-4278,-38,-25,16,2024-01-29 17:05:34,0.0
360,-417,-4207,-37,-29,9,2024-01-29 17:05:34,0.0
357,-383,-4169,-32,-25,7,2024-01-29 17:05:34,0.0
369,-379,-4171,-55,-41,-2,2024-01-29 17:05:34,0.0
317,-408,-4251,-43,-2,16,2024-01-29 17:05:34,0.0
375,-416,-4232,-20,-18,11,2024-01-29 17:05:34,0.0
354,-395,-4161,-35,-23,10,2024-01-29 17:05:35,
367,-378,-4164,-33,-28,5,2024-01-29 17:05:35,0.0
363,-370,-4207,-39,-29,1,2024-01-29 17:05:35,0.0
350,-379,-4221,-42,-24,6,2024-01-29 17:05:35,0.0
367,-405,-4217,-40,-32,7,2024-01-29 17:05:35,0.0
376,-412,-4241,-34,-32,8,2024-01-29 17:05:35,0.0
376,-378,-4166,-40,-20,3,2024-01-29 17:05:35,0.0
349,-376,-4221,-38,-29,3,2024-01-29 17:05:35,0.0
365,-375,-4209,-49,-32,8,2024-01-29 17:05:35,0.0
376,-384,-4231,-36,-16,7,2024-01-29 17:05:35,0.0
351,-357,-4180,-30,-28,10,2024-01-29 17:05:35,0.0
359,-379,-4206,-43,-26,6,2024-01-29 17:05:35,0.0
344,-386,-4175,-29,-21,3,2024-01-29 17:05:35,0.0
354,-379,-4201,-23,-22,8,2024-01-29 17:05:35,0.0
359,-376,-4184,-38,-22,7,2024-01-29 17:05:35,0.0
327,-369,-4200,-31,-33,9,2024-01-29 17:05:35,0.0
348,-428,-4191,-53,-32,9,2024-01-29 17:05:35,0.0
355,-410,-4197,-33,-37,12,2024-01-29 17:05:35,0.0
339,-375,-4204,-49,-31,12,2024-01-29 17:05:36,0.0
339,-393,-4202,-40,-17,10,2024-01-29 17:05:36,0.0
367,-391,-4173,-29,-20,6,2024-01-29 17:05:36,0.0
342,-389,-4146,-39,-16,3,2024-01-29 17:05:36,0.0
352,-418,-4170,-47,-11,3,2024-01-29 17:05:36,0.0
350,-418,-4228,-37,-21,11,2024-01-29 17:05:36,0.0
340,-391,-4240,-39,-36,10,2024-01-29 17:05:36,0.0
362,-424,-4235,-35,-39,10,2024-01-29 17:05:36,0.0
392,-403,-4170,-39,-32,14,2024-01-29 17:05:36,0.0
378,-388,-4145,-54,-28,11,2024-01-29 17:05:36,0.0
355,-354,-4197,-50,-45,10,2024-01-29 17:05:36,0.0
333,-383,-4244,-38,-54,6,2024-01-29 17:05:36,0.0
337,-410,-4232,-33,-28,9,2024-01-29 17:05:36,0.0
350,-394,-4171,-31,-29,11,2024-01-29 17:05:36,0.0
351,-393,-4205,-54,-24,7,2024-01-29 17:05:36,0.0
351,-389,-4209,-51,-31,9,2024-01-29 17:05:36,0.0
378,-406,-4178,-40,-23,8,2024-01-29 17:05:36,0.0
362,-387,-4229,-37,-23,11,2024-01-29 17:05:36,0.0
344,-387,-4214,-33,-19,11,2024-01-29 17:05:37,0.0
358,-417,-4185,-34,-12,8,2024-01-29 17:05:37,0.0
358,-407,-4187,-10,-23,14,2024-01-29 17:05:37,0.0
345,-383,-4228,-31,-25,13,2024-01-29 17:05:37,0.0
343,-377,-4198,-27,-29,7,2024-01-29 17:05:37,0.0
361,-357,-4188,-37,-24,8,2024-01-29 17:05:37,0.0
355,-386,-4231,-43,-24,4,2024-01-29 17:05:37,0.0
347,-396,-4220,-41,-39,8,2024-01-29 17:05:37,0.0
343,-400,-4192,-28,-12,8,2024-01-29 17:05:37,0.0
363,-399,-4238,-48,-21,10,2024-01-29 17:05:37,0.0
341,-400,-4201,-37,-19,9,2024-01-29 17:05:38,0.0
369,-396,-4213,-26,-20,8,2024-01-29 17:05:38,0.0
344,-406,-4204,-34,-29,8,2024-01-29 17:05:38,0.0
387,-406,-4192,-31,-20,8,2024-01-29 17:05:38,0.0
355,-394,-4192,-43,-31,6,2024-01-29 17:05:38,0.0
360,-386,-4222,-44,-42,7,2024-01-29 17:05:38,0.0
369,-380,-4205,-37,-30,10,2024-01-29 17:05:38,0.0
351,-384,-4199,-37,-29,10,2024-01-29 17:05:38,0.0
376,-356,-4175,-31,-32,9,2024-01-29 17:05:38,0.0
360,-394,-4158,-41,-33,9,2024-01-29 17:05:38,0.0
346,-439,-4197,-24,-41,12,2024-01-29 17:05:38,0.0
323,-410,-4254,-17,-18,13,2024-01-29 17:05:38,0.0
632,-465,-4518,48,205,38,2024-01-29 17:05:38,0.0
400,-422,-4594,99,808,-11,2024-01-29 17:05:38,0.0
165,-169,-4998,130,467,131,2024-01-29 17:05:38,0.0
324,-418,-5204,-217,-194,38,2024-01-29 17:05:38,0.0
93,-52,-4825,-300,-493,-10,2024-01-29 17:05:38,0.0
34,-436,-4077,-146,-633,-178,2024-01-29 17:05:38,0.0
261,-60,-3789,-3,-434,-265,2024-01-29 17:05:38,0.0
-14,69,-3925,349,-566,-253,2024-01-29 17:05:38,0.0
116,-834,-4143,860,-565,-340,2024-01-29 17:05:38,0.0
-122,-1381,-4331,1376,-188,-526,2024-01-29 17:05:38,0.0
429,-1053,-3724,1325,123,-536,2024-01-29 17:05:38,0.0
814,-1859,-3930,1061,1,-333,2024-01-29 17:05:38,0.0
194,-2449,-3600,1150,38,-235,2024-01-29 17:05:38,0.0
448,-2100,-3602,1206,360,-62,2024-01-29 17:05:39,0.0
189,-1690,-3097,663,31,97,2024-01-29 17:05:39,0.0
-79,-2212,-3153,-29,-51,228,2024-01-29 17:05:39,0.0
26,-2651,-2964,-135,-45,239,2024-01-29 17:05:39,0.0
-526,-2448,-3479,-385,-128,307,2024-01-29 17:05:39,0.0
-127,-2407,-3104,-603,-120,226,2024-01-29 17:05:39,0.0
78,-2753,-3099,-497,-60,208,2024-01-29 17:05:39,0.0
257,-1766,-3816,-270,340,131,2024-01-29 17:05:39,0.0
473,-1909,-3556,-601,225,-132,2024-01-29 17:05:39,0.0
879,-2072,-4506,-408,724,-138,2024-01-29 17:05:39,0.0
741,-1897,-3990,-472,895,-157,2024-01-29 17:05:39,0.0
1280,-1503,-4074,-696,1389,-265,2024-01-29 17:05:39,0.0
1341,-2094,-3753,-429,1122,-424,2024-01-29 17:05:39,0.0
1489,-1370,-3753,-382,1359,-427,2024-01-29 17:05:39,0.0
820,-879,-3844,-1014,1307,-358,2024-01-29 17:05:39,0.0
1090,-909,-2879,-1138,896,264,2024-01-29 17:05:39,0.0
1272,-760,-4393,-1238,876,507,2024-01-29 17:05:40,0.0
1437,-107,-3805,-1750,180,4,2024-01-29 17:05:40,0.0
2210,-569,-3741,-856,71,324,2024-01-29 17:05:40,0.0
2017,682,-4379,-677,-457,-142,2024-01-29 17:05:40,0.0
1188,535,-3651,-955,-833,185,2024-01-29 17:05:40,0.0
1281,394,-3674,-1521,-845,449,2024-01-29 17:05:40,0.0
1964,-657,-2911,-1276,-116,634,2024-01-29 17:05:40,0.0
2823,227,-4233,-665,863,551,2024-01-29 17:05:40,0.0
3107,1042,-2951,-675,1450,798,2024-01-29 17:05:40,0.0
3739,622,-2766,-189,1840,682,2024-01-29 17:05:40,0.0
4432,1689,-2599,1,2518,441,2024-01-29 17:05:40,0.0
5515,1249,-2614,344,2626,318,2024-01-29 17:05:40,0.0
6124,1217,-2349,-207,2885,-410,2024-01-29 17:05:40,0.0
4773,673,-1076,-74,1233,94,2024-01-29 17:05:40,
4364,-43,-933,-145,607,187,2024-01-29 17:05:40,0.0
3689,696,-790,-202,-236,182,2024-01-29 17:05:40,0.0
4682,534,-1382,-32,-527,193,2024-01-29 17:05:40,0.0
4543,161,-969,204,-367,308,2024-01-29 17:05:40,0.0
4432,0,-915,521,-316,227,2024-01-29 17:05:40,0.0
4311,-230,-733,871,-108,319,2024-01-29 17:05:41,0.0
3774,-179,-914,1155,65,277,2024-01-29 17:05:41,0.0
3246,-668,-1045,1285,166,289,2024-01-29 17:05:41,0.0
3997,-619,-592,953,698,76,2024-01-29 17:05:41,0.0
2916,-446,-554,694,215,-100,2024-01-29 17:05:41,0.0
3853,-833,-774,597,479,123,2024-01-29 17:05:41,0.0
3493,-790,-595,362,816,-118,2024-01-29 17:05:41,0.0
3606,-86,-668,277,337,-219,2024-01-29 17:05:41,0.0
4250,-168,-691,221,477,-133,2024-01-29 17:05:41,0.0
4822,-652,-302,321,574,125,2024-01-29 17:05:41,0.0
3718,113,-172,149,232,-8,2024-01-29 17:05:41,0.0
4397,65,-224,-197,64,96,2024-01-29 17:05:41,0.0
4447,-281,-316,-174,306,86,2024-01-29 17:05:41,0.0
4460,19,62,-76,305,-38,2024-01-29 17:05:41,0.0
4139,232,428,47,592,5,2024-01-29 17:05:41,0.0
3895,137,309,3,86,2,2024-01-29 17:05:41,0.0
4328,632,-68,-247,-94,81,2024-01-29 17:05:41,0.0
4481,-1525,98,-205,169,-57,2024-01-29 17:05:42,0.0
4046,225,600,146,21,-80,2024-01-29 17:05:42,0.0
4489,-322,69,-141,-159,-66,2024-01-29 17:05:42,0.0
4212,-298,147,-60,-6,-40,2024-01-29 17:05:42,0.0
4368,-486,265,9,-27,-13,2024-01-29 17:05:42,0.0
4418,-296,236,102,67,-31,2024-01-29 17:05:42,0.0
4272,-353,297,50,-9,-22,2024-01-29 17:05:42,0.0
4375,-272,290,94,42,14,2024-01-29 17:05:42,0.0
4357,-216,245,37,-36,5,2024-01-29 17:05:42,0.0
4304,-257,239,22,-18,23,2024-01-29 17:05:42,0.0
4356,-286,252,26,-67,0,2024-01-29 17:05:42,0.0
4297,-289,338,66,-95,-12,2024-01-29 17:05:42,0.0
4317,-244,219,85,-172,-20,2024-01-29 17:05:42,0.0
4328,-198,173,97,-230,-25,2024-01-29 17:05:42,0.0
4363,-207,161,77,-73,-25,2024-01-29 17:05:42,0.0
4314,-174,153,91,-193,-36,2024-01-29 17:05:42,0.0
4357,-41,10,17,-104,-30,2024-01-29 17:05:42,0.0
4516,-203,121,15,127,17,2024-01-29 17:05:42,0.0
4223,-53,248,-36,-122,1,2024-01-29 17:05:43,0.0
4471,-68,-10,-89,67,-27,2024-01-29 17:05:43,0.0
4333,6,124,-182,-13,-54,2024-01-29 17:05:43,0.0
4340,-27,140,-245,-102,-5,2024-01-29 17:05:43,0.0
4388,-139,21,-269,-84,-28,2024-01-29 17:05:43,0.0
4349,-163,82,-234,-54,5,2024-01-29 17:05:43,0.0
4326,-221,58,-178,-72,19,2024-01-29 17:05:43,0.0
4357,-177,-15,-135,-45,15,2024-01-29 17:05:43,0.0
4330,-191,20,-67,-64,28,2024-01-29 17:05:43,0.0
4326,-198,-3,-43,-33,29,2024-01-29 17:05:43,0.0
4334,-161,43,-25,-71,22,2024-01-29 17:05:43,0.0
4324,-162,63,-22,-91,31,2024-01-29 17:05:43,0.0
4366,-164,-34,-36,-95,27,2024-01-29 17:05:43,0.0
4368,-192,-22,-12,-49,28,2024-01-29 17:05:43,0.0
4341,-202,-11,-17,-69,20,2024-01-29 17:05:43,0.0
4355,-197,-17,-12,-16,28,2024-01-29 17:05:43,0.0
4377,-165,-17,-38,-28,28,2024-01-29 17:05:43,0.0
4343,-171,32,-33,15,30,2024-01-29 17:05:44,0.0
4346,-166,-60,-35,11,51,2024-01-29 17:05:44,0.0
4366,-234,-53,-28,12,31,2024-01-29 17:05:44,0.0
4283,-166,62,-30,-49,21,2024-01-29 17:05:44,0.0
4364,-225,-31,-11,-18,9,2024-01-29 17:05:44,0.0
4333,-214,1,-28,-45,14,2024-01-29 17:05:44,0.0
4330,-188,-23,-41,-12,9,2024-01-29 17:05:44,0.0
4351,-172,-7,-76,-28,14,2024-01-29 17:05:44,0.0
4356,-190,-55,-83,-20,14,2024-01-29 17:05:44,0.0
4335,-216,51,-79,-23,22,2024-01-29 17:05:44,0.0
4359,-205,32,-83,-17,21,2024-01-29 17:05:44,0.0
4357,-250,-28,-52,-28,28,2024-01-29 17:05:44,0.0
4331,-230,-22,-27,30,38,2024-01-29 17:05:44,0.0
4381,-235,20,-13,-7,40,2024-01-29 17:05:44,0.0
4326,-248,40,-9,2,26,2024-01-29 17:05:44,0.0
4339,-212,61,-11,2,11,2024-01-29 17:05:44,0.0
4348,-218,63,-35,-60,-5,2024-01-29 17:05:44,0.0
4403,-245,21,-30,-23,-8,2024-01-29 17:05:44,0.0
4294,-235,33,-43,-58,-13,2024-01-29 17:05:45,0.0
4329,-196,96,-57,-127,-4,2024-01-29 17:05:45,0.0
4338,-298,-8,-29,-122,-7,2024-01-29 17:05:45,0.0
4357,-263,-18,-27,-87,-10,2024-01-29 17:05:45,0.0
4348,-198,26,-26,-96,-5,2024-01-29 17:05:45,0.0
4375,-223,-26,-41,-55,-9,2024-01-29 17:05:45,0.0
4312,-202,-96,-46,-29,-5,2024-01-29 17:05:45,0.0
4334,-177,-69,-56,-71,-9,2024-01-29 17:05:45,0.0
4324,-190,-152,-33,-127,-4,2024-01-29 17:05:45,0.0
4353,-149,-149,-55,-79,-2,2024-01-29 17:05:45,0.0
4283,-181,-145,-53,-69,16,2024-01-29 17:05:45,0.0
4389,-207,-191,-52,-44,15,2024-01-29 17:05:45,0.0
4322,-182,-149,-41,-43,18,2024-01-29 17:05:45,0.0
4368,-239,-174,-38,-51,16,2024-01-29 17:05:45,0.0
4319,-226,-119,-36,-35,21,2024-01-29 17:05:45,0.0
4414,-208,-153,-30,-9,6,2024-01-29 17:05:45,0.0
4330,-220,-152,-34,-20,20,2024-01-29 17:05:45,0.0
4353,-206,-177,-27,-19,-2,2024-01-29 17:05:46,0.0
4342,-195,-150,-45,-21,5,2024-01-29 17:05:46,0.0
4305,-169,-156,-59,-7,8,2024-01-29 17:05:46,0.0
4342,-226,-133,-87,-48,13,2024-01-29 17:05:46,0.0
4354,-219,-144,-69,-12,10,2024-01-29 17:05:46,0.0
4374,-169,-139,-91,-20,3,2024-01-29 17:05:46,0.0
4310,-220,-181,-50,-3,10,2024-01-29 17:05:46,0.0
4335,-204,-152,-56,-6,-3,2024-01-29 17:05:46,
4342,-217,-208,-28,-12,7,2024-01-29 17:05:46,0.0
4380,-209,-128,-43,2,-19,2024-01-29 17:05:46,0.0
4314,-140,-131,-76,31,17,2024-01-29 17:05:46,0.0
4367,-254,-154,-49,17,8,2024-01-29 17:05:46,0.0
4330,-214,-75,-39,16,16,2024-01-29 17:05:46,0.0
4313,-186,-80,-21,10,25,2024-01-29 17:05:46,0.0
4376,-239,-131,-5,-9,21,2024-01-29 17:05:46,0.0
4340,-232,-20,-9,0,11,2024-01-29 17:05:46,0.0
4331,-134,2,-1,-29,16,2024-01-29 17:05:46,0.0
4366,-198,-50,-45,-129,-7,2024-01-29 17:05:46,0.0
4325,-220,-81,-68,-67,-2,2024-01-29 17:05:47,0.0
4377,-214,-134,-59,-42,-13,2024-01-29 17:05:47,0.0
4309,-209,-61,-50,-70,0,2024-01-29 17:05:47,0.0
4368,-180,-124,-67,-33,1,2024-01-29 17:05:47,0.0
4342,-146,-142,-55,-13,6,2024-01-29 17:05:47,0.0
4336,-142,-108,-106,-21,12,2024-01-29 17:05:47,0.0
4303,-197,-90,-98,-12,-1,2024-01-29 17:05:47,0.0
4390,-220,-81,-98,-19,5,2024-01-29 17:05:47,0.0
4314,-229,-96,-91,-32,1,2024-01-29 17:05:47,0.0
4385,-250,-108,-17,-38,-13,2024-01-29 17:05:47,0.0
4331,-190,-155,-24,-27,-7,2024-01-29 17:05:47,0.0
4285,-142,-133,-10,-3,21,2024-01-29 17:05:47,0.0
4378,-142,-77,-13,-58,1,2024-01-29 17:05:47,0.0
4290,-178,-107,-19,-45,15,2024-01-29 17:05:47,0.0
4330,-203,-137,-37,-69,21,2024-01-29 17:05:47,0.0
4350,-172,-80,-51,-77,31,2024-01-29 17:05:47,0.0
4320,-162,-120,-76,-11,21,2024-01-29 17:05:47,0.0
4374,-215,-152,-65,-49,24,2024-01-29 17:05:48,0.0
4286,-211,-116,-43,-3,21,2024-01-29 17:05:48,0.0
4400,-194,-129,-39,-21,6,2024-01-29 17:05:48,0.0
4270,-202,-147,-35,-36,-2,2024-01-29 17:05:48,0.0
4346,-171,-147,-42,-59,3,2024-01-29 17:05:48,0.0
4344,-174,-196,-19,-4,28,2024-01-29 17:05:48,0.0
4367,-142,-84,-36,-47,23,2024-01-29 17:05:48,0.0
4366,-150,-150,-72,-28,17,2024-01-29 17:05:48,0.0
4308,-179,-140,-89,-7,15,2024-01-29 17:05:48,0.0
4407,-255,-138,-73,6,2,2024-01-29 17:05:48,0.0
4287,-256,-95,-72,-24,9,2024-01-29 17:05:48,0.0
4343,-269,-149,-24,-76,17,2024-01-29 17:05:48,0.0
4384,-221,-156,-27,-27,6,2024-01-29 17:05:48,0.0
4307,-169,-136,-29,-78,24,2024-01-29 17:05:48,0.0
4347,-170,-150,-48,-43,22,2024-01-29 17:05:48,0.0
4364,-156,-116,-62,-46,6,2024-01-29 17:05:48,0.0
4340,-206,-147,-57,59,6,2024-01-29 17:05:48,0.0
4368,-187,-85,-69,33,-7,2024-01-29 17:05:48,0.0
4339,-247,-129,-61,-19,18,2024-01-29 17:05:49,0.0
4339,-177,-123,-50,13,7,2024-01-29 17:05:49,0.0
4326,-244,-148,-33,-12,19,2024-01-29 17:05:49,0.0
4358,-207,-116,-33,-10,10,2024-01-29 17:05:49,0.0
4336,-240,-98,-33,-11,23,2024-01-29 17:05:49,0.0
4356,-249,-100,-28,-3,14,2024-01-29 17:05:49,0.0
4355,-216,-80,-27,-6,17,2024-01-29 17:05:49,0.0
4355,-204,-102,-14,2,17,2024-01-29 17:05:49,0.0
4328,-218,-83,-19,-12,13,2024-01-29 17:05:49,0.0
4348,-201,-31,-28,-26,12,2024-01-29 17:05:49,0.0
4370,-228,-39,-29,-7,14,2024-01-29 17:05:49,0.0
4302,-238,-52,-44,-29,8,2024-01-29 17:05:49,0.0
4359,-208,-95,-57,-29,9,2024-01-29 17:05:49,0.0
4333,-240,-38,-55,-63,0,2024-01-29 17:05:49,0.0
4344,-203,-68,-65,-42,-3,2024-01-29 17:05:49,0.0
4342,-200,-10,-63,-104,-9,2024-01-29 17:05:49,0.0
4385,-223,-148,-66,-78,-1,2024-01-29 17:05:49,0.0
4280,-195,-94,-55,-93,-10,2024-01-29 17:05:50,0.0
4390,-238,-146,-42,-48,3,2024-01-29 17:05:50,0.0
4295,-146,-62,-39,-71,-7,2024-01-29 17:05:50,0.0
4386,-218,-129,-55,-35,6,2024-01-29 17:05:50,0.0
4296,-224,-139,-32,-71,-1,2024-01-29 17:05:50,0.0
4388,-223,-193,-17,-40,0,2024-01-29 17:05:50,0.0
4349,-214,-110,-13,-35,-3,2024-01-29 17:05:50,0.0
4350,-169,-177,-18,-62,0,2024-01-29 17:05:50,0.0
4342,-188,-189,-11,-52,-8,2024-01-29 17:05:50,0.0
4338,-177,-172,-17,-63,-6,2024-01-29 17:05:50,0.0
4366,-163,-209,-41,-56,-8,2024-01-29 17:05:50,0.0
4364,-199,-224,-37,-58,-4,2024-01-29 17:05:50,0.0
4349,-171,-193,-68,-43,-5,2024-01-29 17:05:50,0.0
4336,-207,-237,-52,-38,7,2024-01-29 17:05:50,0.0
4295,-124,-223,-64,-23,9,2024-01-29 17:05:50,0.0
4337,-183,-253,-55,-20,14,2024-01-29 17:05:50,0.0
4340,-178,-204,-51,-17,10,2024-01-29 17:05:50,0.0
4343,-182,-235,-39,-32,12,2024-01-29 17:05:50,0.0
4312,-158,-195,-45,0,20,2024-01-29 17:05:51,0.0
4351,-174,-237,-40,-20,15,2024-01-29 17:05:51,0.0
4307,-155,-183,-33,-26,14,2024-01-29 17:05:51,0.0
4325,-160,-161,-34,-29,17,2024-01-29 17:05:51,0.0
4423,-215,-184,-29,-29,11,2024-01-29 17:05:51,0.0
4222,-185,-113,-40,-16,0,2024-01-29 17:05:51,0.0
4320,-140,-186,-14,-102,17,2024-01-29 17:05:51,0.0
4249,-212,-115,-25,-139,8,2024-01-29 17:05:51,0.0
4285,-145,-198,-13,-213,8,2024-01-29 17:05:51,0.0
4352,-127,-234,-52,-228,27,2024-01-29 17:05:51,0.0
4313,-73,-44,-142,-187,21,2024-01-29 17:05:51,0.0
4248,-177,-94,-106,-379,30,2024-01-29 17:05:51,0.0
4347,-195,-177,-76,-340,25,2024-01-29 17:05:51,0.0
4309,-133,-307,-117,-377,4,2024-01-29 17:05:51,0.0
4485,-260,-217,-28,-203,38,2024-01-29 17:05:51,0.0
4267,-243,-436,-52,-263,7,2024-01-29 17:05:51,0.0
4285,-235,-566,-22,-250,-8,2024-01-29 17:05:51,0.0
4332,-115,-660,-51,-346,32,2024-01-29 17:05:52,0.0
4239,-223,-770,-45,-426,77,2024-01-29 17:05:52,0.0
4179,-181,-710,-103,-392,37,2024-01-29 17:05:52,
4013,-228,-665,-59,-462,30,2024-01-29 17:05:52,0.0
4056,-206,-712,-36,-530,29,2024-01-29 17:05:52,0.0
3982,-223,-756,-19,-552,25,2024-01-29 17:05:52,0.0
3895,-95,-550,-43,-576,40,2024-01-29 17:05:52,0.0
3979,-273,-668,-104,-621,-23,2024-01-29 17:05:52,0.0
3939,-58,-599,-185,-515,-38,2024-01-29 17:05:52,0.0
4048,-332,-374,-122,-436,-29,2024-01-29 17:05:52,0.0
3386,-171,-399,-116,-241,-125,2024-01-29 17:05:52,0.0
1317,107,-1244,10,-1472,-140,2024-01-29 17:05:52,0.0
-640,-350,-231,208,-1199,-240,2024-01-29 17:05:52,0.0
-1021,-836,-1560,509,-2111,-297,2024-01-29 17:05:52,0.0
516,342,-4240,-593,-5334,1119,2024-01-29 17:05:52,0.0
5851,66,-8064,-1074,-11723,-246,2024-01-29 17:05:52,0.0
896,-1765,-3653,536,2944,75,2024-01-29 17:05:52,0.0
-3059,545,-8730,-1706,2628,269,2024-01-29 17:05:52,0.0
2100,-223,-5856,483,-1286,522,2024-01-29 17:05:53,0.0
-3031,475,-7449,-699,5613,-111,2024-01-29 17:05:53,0.0
-3775,1698,-2492,318,-2027,700,2024-01-29 17:05:53,0.0
1389,-1368,-2325,856,-2717,348,2024-01-29 17:05:53,0.0
505,213,-1819,444,896,-212,2024-01-29 17:05:53,0.0
-434,-71,-3206,208,-150,-161,2024-01-29 17:05:53,0.0
923,-742,-4497,493,-428,-117,2024-01-29 17:05:53,0.0
626,-621,-5094,44,168,-194,2024-01-29 17:05:53,0.0
660,-295,-4318,-28,71,-86,2024-01-29 17:05:53,0.0
923,-460,-4290,-117,24,-88,2024-01-29 17:05:53,0.0
753,-410,-3978,-94,118,29,2024-01-29 17:05:53,0.0
501,-299,-4080,-143,102,36,2024-01-29 17:05:53,0.0
498,-355,-4377,-144,-174,131,2024-01-29 17:05:53,0.0
808,-596,-4332,-64,15,48,2024-01-29 17:05:53,0.0
414,-229,-4038,-20,171,9,2024-01-29 17:05:53,0.0
728,-335,-4222,-128,-195,10,2024-01-29 17:05:53,0.0
715,-323,-4157,-84,56,49,2024-01-29 17:05:53,0.0
667,-429,-4349,-70,48,-4,2024-01-29 17:05:54,0.0
652,-316,-4264,-34,-36,-7,2024-01-29 17:05:54,0.0
663,-245,-4140,-64,15,13,2024-01-29 17:05:54,0.0
717,-338,-4177,-83,-32,26,2024-01-29 17:05:54,0.0
714,-323,-4229,-27,8,13,2024-01-29 17:05:54,0.0
691,-333,-4240,-29,5,3,2024-01-29 17:05:54,0.0
699,-300,-4176,-58,-54,7,2024-01-29 17:05:54,0.0
718,-314,-4147,-46,11,15,2024-01-29 17:05:54,0.0
665,-274,-4199,-62,-42,-1,2024-01-29 17:05:54,0.0
691,-315,-4202,-48,-7,19,2024-01-29 17:05:54,0.0
652,-309,-4330,-26,-47,9,2024-01-29 17:05:54,0.0
685,-295,-4214,-23,-25,6,2024-01-29 17:05:54,0.0
739,-275,-4089,-7,-6,5,2024-01-29 17:05:54,0.0
682,-285,-4071,-18,-42,13,2024-01-29 17:05:54,0.0
783,-346,-4148,-37,18,9,2024-01-29 17:05:54,0.0
734,-288,-4168,-36,4,8,2024-01-29 17:05:54,0.0
757,-297,-4241,-37,-2,9,2024-01-29 17:05:54,0.0
703,-306,-4207,-36,-26,7,2024-01-29 17:05:54,0.0
761,-263,-4200,-62,18,14,2024-01-29 17:05:55,0.0
734,-353,-4239,-61,-23,4,2024-01-29 17:05:55,0.0
781,-234,-4105,-46,9,13,2024-01-29 17:05:55,0.0
742,-323,-4144,-26,-44,7,2024-01-29 17:05:55,0.0
771,-303,-4064,-52,20,3,2024-01-29 17:05:55,0.0
792,-303,-4158,-46,0,7,2024-01-29 17:05:55,0.0
693,-296,-4127,-20,6,16,2024-01-29 17:05:55,0.0
849,-287,-4230,-40,-64,18,2024-01-29 17:05:55,0.0
766,-317,-4130,-24,15,7,2024-01-29 17:05:55,0.0
763,-337,-4162,-25,15,-1,2024-01-29 17:05:55,0.0
797,-299,-4224,-39,-23,2,2024-01-29 17:05:55,0.0
783,-297,-4123,-24,-64,11,2024-01-29 17:05:55,0.0
806,-325,-4170,-28,32,6,2024-01-29 17:05:55,0.0
755,-288,-4123,-38,-22,7,2024-01-29 17:05:55,0.0
820,-323,-4232,-30,-1,7,2024-01-29 17:05:55,0.0
771,-353,-4147,-49,-38,12,2024-01-29 17:05:55,0.0
822,-313,-4110,-47,-52,10,2024-01-29 17:05:55,0.0
764,-336,-4063,-13,-25,1,2024-01-29 17:05:56,0.0
920,-293,-4285,-9,22,14,2024-01-29 17:05:56,0.0
711,-335,-4133,10,14,-4,2024-01-29 17:05:56,0.0
853,-374,-4252,-14,-20,7,2024-01-29 17:05:56,0.0
797,-366,-4183,-25,-15,13,2024-01-29 17:05:56,0.0
869,-330,-4183,-37,-28,8,2024-01-29 17:05:56,0.0
764,-349,-4159,-28,-72,27,2024-01-29 17:05:56,0.0
842,-381,-4214,-42,-28,-1,2024-01-29 17:05:56,0.0
788,-367,-4141,-19,-28,9,2024-01-29 17:05:56,0.0
829,-365,-4163,-32,-23,8,2024-01-29 17:05:56,0.0
778,-346,-4088,-22,25,10,2024-01-29 17:05:56,0.0
888,-383,-4138,-26,2,8,2024-01-29 17:05:56,0.0
822,-342,-4160,-4,13,10,2024-01-29 17:05:56,0.0
849,-395,-4210,-30,-14,-1,2024-01-29 17:05:56,0.0
837,-380,-4211,-21,-18,9,2024-01-29 17:05:56,0.0
855,-332,-4139,-42,-52,16,2024-01-29 17:05:56,0.0
811,-380,-4201,-44,-40,4,2024-01-29 17:05:56,0.0
836,-384,-4151,-28,-49,6,2024-01-29 17:05:56,0.0
899,-376,-4167,-38,-6,5,2024-01-29 17:05:57,0.0
826,-379,-4134,-47,-18,1,2024-01-29 17:05:57,0.0
876,-393,-4160,-56,-21,9,2024-01-29 17:05:57,0.0
805,-389,-4160,-39,-16,18,2024-01-29 17:05:57,0.0
865,-390,-4146,-48,-16,11,2024-01-29 17:05:57,0.0
844,-362,-4131,-42,-15,2,2024-01-29 17:05:57,0.0
834,-369,-4160,-36,-18,12,2024-01-29 17:05:57,0.0
858,-411,-4153,-15,-13,27,2024-01-29 17:05:57,0.0
820,-397,-4118,-66,-40,12,2024-01-29 17:05:57,0.0
862,-390,-4102,-53,-22,15,2024-01-29 17:05:57,0.0
852,-368,-4188,-64,-29,16,2024-01-29 17:05:57,0.0
852,-342,-4223,-48,-11,9,2024-01-29 17:05:57,0.0
800,-364,-4132,-22,-44,6,2024-01-29 17:05:57,0.0
845,-385,-4107,-102,-97,-12,2024-01-29 17:05:57,0.0
879,-354,-4076,-73,2,24,2024-01-29 17:05:57,
