acceleration_x,acceleration_y,acceleration_z,gyroscope_x,gyroscope_y,gyroscope_z,timestamp,label
4191,-553,-798,-325,207,-52,2024-01-24 15:32:52,0.0
4313,-587,-745,-267,232,-66,2024-01-24 15:32:52,0.0
4173,-493,-640,-278,261,-90,2024-01-24 15:32:52,0.0
4196,-449,-483,-243,61,-38,2024-01-24 15:32:52,0.0
4331,-489,-606,-209,48,-31,2024-01-24 15:32:52,0.0
4230,-443,-532,-189,48,-14,2024-01-24 15:32:52,0.0
4310,-469,-507,-141,33,-7,2024-01-24 15:32:52,0.0
4254,-320,-472,-102,-16,-5,2024-01-24 15:32:52,0.0
4314,-398,-560,-116,-56,8,2024-01-24 15:32:53,0.0
4302,-313,-763,-141,-164,14,2024-01-24 15:32:53,0.0
4088,-530,-832,-161,-322,27,2024-01-24 15:32:53,0.0
3939,-460,-1058,-105,-507,101,2024-01-24 15:32:53,0.0
4219,-644,-1286,-75,-613,96,2024-01-24 15:32:53,0.0
3703,-717,-1729,80,-901,171,2024-01-24 15:32:53,0.0
3343,-790,-1652,168,-1162,169,2024-01-24 15:32:53,0.0
2992,-405,-1219,202,-1364,230,2024-01-24 15:32:53,0.0
4168,-323,-1822,101,-1250,246,2024-01-24 15:32:53,0.0
3655,-408,-1621,-176,-1512,121,2024-01-24 15:32:53,0.0
3488,-741,-1846,-8,-1806,443,2024-01-24 15:32:53,0.0
3631,-750,-2715,87,-1536,262,2024-01-24 15:32:53,0.0
2946,-759,-2481,-54,-1771,422,2024-01-24 15:32:53,0.0
2731,-978,-3003,214,-1840,389,2024-01-24 15:32:53,0.0
1975,-1514,-4747,101,-5956,331,2024-01-24 15:32:53,0.0
1609,-1212,-4124,124,-1470,215,2024-01-24 15:32:53,0.0
2001,-1279,-4680,139,-1594,200,2024-01-24 15:32:53,0.0
1109,-1401,-4424,-150,-1349,27,2024-01-24 15:32:53,0.0
892,-1476,-4122,209,-1321,-94,2024-01-24 15:32:54,0.0
450,-855,-4311,113,-1069,7,2024-01-24 15:32:54,0.0
214,-1523,-4334,-32,-796,-21,2024-01-24 15:32:54,0.0
30,-1034,-4227,114,-408,27,2024-01-24 15:32:54,0.0
-201,-1592,-4381,-63,61,74,2024-01-24 15:32:54,0.0
64,-1397,-4444,-31,399,71,2024-01-24 15:32:54,0.0
458,-1268,-4480,-252,1243,-73,2024-01-24 15:32:54,0.0
809,-1436,-4569,-180,1645,-164,2024-01-24 15:32:54,0.0
1192,-1206,-4462,-145,1895,-253,2024-01-24 15:32:54,0.0
1603,-1268,-4137,-69,2022,-268,2024-01-24 15:32:54,0.0
1947,-1226,-3936,-78,1829,-338,2024-01-24 15:32:54,0.0
2563,-1089,-3740,-143,1966,-365,2024-01-24 15:32:54,0.0
2874,-953,-3059,-147,2158,-429,2024-01-24 15:32:54,0.0
3068,-790,-2870,-152,1819,-344,2024-01-24 15:32:54,0.0
3310,-729,-2288,-99,1906,-298,2024-01-24 15:32:54,0.0
3489,-626,-2179,-177,1607,-326,2024-01-24 15:32:54,0.0
3752,-578,-1743,-176,1614,-329,2024-01-24 15:32:54,0.0
3623,-710,-1987,-105,999,-312,2024-01-24 15:32:55,0.0
3800,-341,-998,-161,777,-243,2024-01-24 15:32:55,0.0
4007,-698,-1200,-93,901,-121,2024-01-24 15:32:55,0.0
3971,-305,-1073,-103,859,-147,2024-01-24 15:32:55,0.0
3876,-402,-736,-224,728,-73,2024-01-24 15:32:55,0.0
4168,-483,-736,-171,587,-72,2024-01-24 15:32:55,0.0
4104,-183,-386,-257,414,-95,2024-01-24 15:32:55,0.0
4251,-352,-382,-267,225,-41,2024-01-24 15:32:55,0.0
4348,-543,-344,-190,223,-18,2024-01-24 15:32:55,0.0
4269,-435,-223,-34,216,-46,2024-01-24 15:32:55,0.0
4302,-226,-220,-8,194,-16,2024-01-24 15:32:55,0.0
4229,-333,-147,-6,74,-5,2024-01-24 15:32:55,0.0
4402,-269,-296,-52,-35,27,2024-01-24 15:32:55,0.0
4209,-460,-277,-43,-205,45,2024-01-24 15:32:55,0.0
4131,-360,-506,20,-348,64,2024-01-24 15:32:55,0.0
4085,-467,-679,-7,-647,121,2024-01-24 15:32:55,0.0
3881,-575,-1074,63,-907,167,2024-01-24 15:32:55,0.0
3717,-382,-1075,57,-1210,219,2024-01-24 15:32:55,0.0
3557,-487,-1125,-18,-1306,327,2024-01-24 15:32:56,0.0
3308,-522,-1629,64,-1951,441,2024-01-24 15:32:56,0.0
3371,-534,-1823,-150,-1968,382,2024-01-24 15:32:56,0.0
3303,-443,-1675,-252,-1865,214,2024-01-24 15:32:56,0.0
2701,-814,-1755,-102,-1925,300,2024-01-24 15:32:56,0.0
3033,-1014,-1901,58,-2334,346,2024-01-24 15:32:56,0.0
4119,-950,-3664,249,-417,71,2024-01-24 15:32:56,0.0
4764,-138,-4435,-300,-3384,43,2024-01-24 15:32:56,0.0
1868,-2146,-4107,447,-2120,132,2024-01-24 15:32:56,0.0
2642,-302,-5423,527,-1868,84,2024-01-24 15:32:56,0.0
961,-1786,-4608,207,-1794,-152,2024-01-24 15:32:56,0.0
1021,-1017,-4543,204,-1643,-220,2024-01-24 15:32:56,0.0
656,-1149,-4215,246,-857,-130,2024-01-24 15:32:56,0.0
295,-1205,-4296,-8,-468,-196,2024-01-24 15:32:56,0.0
128,-1268,-4263,20,-462,-273,2024-01-24 15:32:56,0.0
104,-1551,-4439,-113,-205,-131,2024-01-24 15:32:56,0.0
-100,-1369,-4466,-91,219,-100,2024-01-24 15:32:56,0.0
116,-1669,-4707,-142,497,-65,2024-01-24 15:32:57,0.0
550,-1555,-4834,-103,1059,-81,2024-01-24 15:32:57,0.0
855,-1512,-4574,21,1469,-132,2024-01-24 15:32:57,0.0
1353,-1299,-4254,-41,1637,-203,2024-01-24 15:32:57,0.0
1742,-1309,-4124,-214,2132,-305,2024-01-24 15:32:57,0.0
2160,-1142,-3615,-138,2004,-257,2024-01-24 15:32:57,0.0
2679,-1060,-3609,-214,2091,-320,2024-01-24 15:32:57,0.0
2860,-961,-3048,-251,2025,-260,2024-01-24 15:32:57,0.0
3115,-908,-2709,-276,1894,-264,2024-01-24 15:32:57,0.0
3322,-617,-2298,-343,1922,-305,2024-01-24 15:32:57,0.0
2680,-647,-1776,-335,1796,-106,2024-01-24 15:32:57,0.0
3757,-757,-1758,-306,980,-115,2024-01-24 15:32:57,0.0
4169,-655,-1770,-291,1221,-262,2024-01-24 15:32:57,0.0
3609,-515,-1107,-216,900,-195,2024-01-24 15:32:57,0.0
3787,-372,-1068,-329,808,-232,2024-01-24 15:32:57,0.0
3974,-517,-1059,-306,632,-91,2024-01-24 15:32:57,0.0
4053,-595,-761,-266,638,-165,2024-01-24 15:32:57,0.0
4221,-237,-687,-277,536,-144,2024-01-24 15:32:58,0.0
4247,-634,-507,-193,655,-110,2024-01-24 15:32:58,0.0
4037,-410,-429,-87,684,-127,2024-01-24 15:32:58,0.0
4096,-377,-389,-97,387,-8,2024-01-24 15:32:58,0.0
4290,-313,-73,-60,146,-16,2024-01-24 15:32:58,
4331,-320,5,-24,80,1,2024-01-24 15:32:58,0.0
4247,-206,-132,-85,-124,33,2024-01-24 15:32:58,0.0
4253,-294,-234,-119,-366,39,2024-01-24 15:32:58,0.0
4042,-356,-513,-110,-661,82,2024-01-24 15:32:58,0.0
4089,-242,-942,-161,-854,72,2024-01-24 15:32:58,0.0
3484,-363,-953,-138,-958,131,2024-01-24 15:32:58,0.0
3455,-311,-1026,-118,-1351,218,2024-01-24 15:32:58,0.0
3016,-433,-1160,-165,-1423,236,2024-01-24 15:32:58,0.0
3044,-136,-1399,-104,-1855,273,2024-01-24 15:32:58,0.0
3739,-752,-1801,-31,-1651,296,2024-01-24 15:32:58,0.0
3666,-674,-1630,260,-1299,260,2024-01-24 15:32:58,0.0
3708,-534,-2068,145,-1312,183,2024-01-24 15:32:58,0.0
3801,-692,-2634,236,-1158,160,2024-01-24 15:32:58,0.0
6538,-1195,-3885,101,-3816,106,2024-01-24 15:32:59,0.0
2994,-977,-3368,351,-1140,42,2024-01-24 15:32:59,0.0
3023,-1245,-3938,242,-1279,72,2024-01-24 15:32:59,0.0
2048,-799,-3574,500,-1416,42,2024-01-24 15:32:59,0.0
2553,-674,-4538,38,-1631,1,2024-01-24 15:32:59,0.0
1630,-1358,-4073,-86,-1331,41,2024-01-24 15:32:59,0.0
1533,-847,-4409,-128,-721,-96,2024-01-24 15:32:59,0.0
1341,-1301,-4175,-74,-764,-106,2024-01-24 15:32:59,0.0
1103,-1087,-4107,-152,-291,-35,2024-01-24 15:32:59,0.0
955,-1145,-4300,-100,-116,26,2024-01-24 15:32:59,0.0
867,-1141,-4110,-160,-19,19,2024-01-24 15:32:59,0.0
895,-1034,-4151,-120,46,52,2024-01-24 15:32:59,0.0
754,-951,-3825,-32,98,81,2024-01-24 15:32:59,0.0
920,-776,-4235,-21,76,88,2024-01-24 15:32:59,0.0
928,-1013,-4269,-37,-272,106,2024-01-24 15:32:59,0.0
947,-979,-4594,-119,-198,157,2024-01-24 15:32:59,0.0
761,-789,-4571,-111,-171,206,2024-01-24 15:32:59,0.0
793,-1073,-4311,-178,-341,275,2024-01-24 15:32:59,0.0
713,-899,-4045,-97,-304,252,2024-01-24 15:33:00,0.0
692,-1028,-4048,-48,-350,242,2024-01-24 15:33:00,0.0
625,-943,-3848,-15,-364,209,2024-01-24 15:33:00,0.0
445,-798,-3909,-7,-246,189,2024-01-24 15:33:00,0.0
398,-891,-3913,48,-424,166,2024-01-24 15:33:00,0.0
468,-829,-4207,66,-305,115,2024-01-24 15:33:00,0.0
325,-1065,-4487,120,-291,70,2024-01-24 15:33:00,0.0
299,-1101,-4845,38,-44,27,2024-01-24 15:33:00,0.0
328,-1278,-5166,0,436,-49,2024-01-24 15:33:00,0.0
728,-1138,-5084,-11,1211,-57,2024-01-24 15:33:00,0.0
1224,-1126,-4626,-81,1685,-124,2024-01-24 15:33:00,0.0
1735,-1033,-4357,-110,2014,-255,2024-01-24 15:33:00,0.0
1948,-880,-4033,-225,2239,-366,2024-01-24 15:33:00,0.0
2495,-871,-3318,-152,2195,-390,2024-01-24 15:33:00,0.0
2814,-685,-2865,-154,2119,-421,2024-01-24 15:33:00,0.0
3027,-644,-2677,-132,2174,-435,2024-01-24 15:33:00,0.0
2948,-498,-2013,-36,2214,-376,2024-01-24 15:33:00,0.0
3199,-484,-1760,-162,1716,-297,2024-01-24 15:33:01,0.0
3425,-549,-1614,-141,1582,-209,2024-01-24 15:33:01,0.0
3744,-596,-1608,-217,1001,-141,2024-01-24 15:33:01,0.0
3882,-478,-1278,-284,809,-67,2024-01-24 15:33:01,0.0
3531,-420,-1294,-537,725,-47,2024-01-24 15:33:01,0.0
3455,-203,-1377,-639,337,58,2024-01-24 15:33:01,0.0
4180,-104,-1270,-644,342,41,2024-01-24 15:33:01,0.0
4520,-242,-768,-367,454,194,2024-01-24 15:33:01,0.0
4463,-348,-491,-170,427,-8,2024-01-24 15:33:01,0.0
4160,246,-443,-200,325,-74,2024-01-24 15:33:01,0.0
4183,-88,-274,-149,152,45,2024-01-24 15:33:01,0.0
4267,-166,-471,23,98,76,2024-01-24 15:33:01,0.0
4124,12,-620,125,22,110,2024-01-24 15:33:01,0.0
4411,-289,-693,193,-204,111,2024-01-24 15:33:01,0.0
4469,-749,-978,218,-340,-56,2024-01-24 15:33:01,0.0
3197,-1089,-777,565,-589,56,2024-01-24 15:33:01,0.0
4065,-790,-778,930,-886,246,2024-01-24 15:33:01,0.0
4388,-281,-967,555,-713,155,2024-01-24 15:33:02,0.0
4075,-331,-827,80,-801,354,2024-01-24 15:33:02,0.0
3645,-1124,-823,-78,-943,432,2024-01-24 15:33:02,0.0
3780,-1058,-1259,49,-1219,464,2024-01-24 15:33:02,0.0
3342,-1043,-1404,29,-1118,495,2024-01-24 15:33:02,0.0
3346,-824,-1727,20,-1413,505,2024-01-24 15:33:02,0.0
3541,-929,-1792,-49,-1543,416,2024-01-24 15:33:02,0.0
3184,-1171,-2614,-271,-1828,643,2024-01-24 15:33:02,0.0
1480,-1675,-3193,-170,-5000,313,2024-01-24 15:33:02,0.0
3012,-1481,-3676,152,-1872,445,2024-01-24 15:33:02,0.0
2413,-1268,-4316,127,-2887,400,2024-01-24 15:33:02,0.0
1316,-1797,-3667,89,-1188,97,2024-01-24 15:33:02,0.0
1669,-1437,-4782,178,-1972,240,2024-01-24 15:33:02,0.0
479,-1789,-4066,108,-978,140,2024-01-24 15:33:02,0.0
565,-1459,-4291,-67,-1213,64,2024-01-24 15:33:02,0.0
-176,-1706,-4283,-2,-850,91,2024-01-24 15:33:02,0.0
-89,-1447,-4259,-122,-649,58,2024-01-24 15:33:02,0.0
-329,-1584,-4066,-111,-405,-3,2024-01-24 15:33:02,0.0
-330,-1543,-4196,-56,-243,7,2024-01-24 15:33:03,0.0
-446,-1582,-4290,-100,55,3,2024-01-24 15:33:03,0.0
-269,-1635,-4431,-66,404,-2,2024-01-24 15:33:03,0.0
-113,-1638,-4510,-65,838,-75,2024-01-24 15:33:03,0.0
433,-1586,-4542,-77,1500,-184,2024-01-24 15:33:03,0.0
849,-1509,-4305,-91,1863,-322,2024-01-24 15:33:03,0.0
1205,-1458,-4114,-119,1908,-364,2024-01-24 15:33:03,0.0
1721,-1327,-3900,-149,1935,-370,2024-01-24 15:33:03,0.0
2192,-1254,-3749,-213,1972,-416,2024-01-24 15:33:03,0.0
2487,-1193,-3415,-229,2022,-419,2024-01-24 15:33:03,0.0
2776,-1058,-3060,-161,2034,-437,2024-01-24 15:33:03,0.0
3051,-913,-2686,-189,1673,-387,2024-01-24 15:33:03,0.0
3483,-878,-2439,-199,1754,-415,2024-01-24 15:33:03,0.0
3331,-698,-1957,-155,1473,-352,2024-01-24 15:33:03,0.0
3765,-712,-1821,-184,1473,-398,2024-01-24 15:33:03,0.0
3153,-588,-1078,-82,1008,-306,2024-01-24 15:33:03,0.0
3711,-540,-1447,-174,824,-275,2024-01-24 15:33:03,
3943,-542,-1125,-238,800,-213,2024-01-24 15:33:03,0.0
4068,-530,-1065,-182,869,-167,2024-01-24 15:33:04,0.0
3977,-544,-779,-224,710,-154,2024-01-24 15:33:04,0.0
4170,-462,-801,-168,408,-106,2024-01-24 15:33:04,0.0
4012,-354,-514,-174,540,-76,2024-01-24 15:33:04,0.0
4424,-377,-492,-188,269,-59,2024-01-24 15:33:04,0.0
4326,-371,-295,-152,443,-33,2024-01-24 15:33:04,0.0
4265,-258,-212,-144,252,-46,2024-01-24 15:33:04,0.0
4275,-323,-34,-150,161,-23,2024-01-24 15:33:04,0.0
4306,-336,-174,-112,105,-26,2024-01-24 15:33:04,0.0
4341,-313,4,-94,6,-2,2024-01-24 15:33:04,0.0
4398,-328,-103,-82,-3,13,2024-01-24 15:33:04,0.0
4334,-334,-104,-47,-66,17,2024-01-24 15:33:04,0.0
4301,-277,-123,-25,-97,23,2024-01-24 15:33:04,0.0
4178,-304,-195,-58,-126,25,2024-01-24 15:33:04,0.0
4206,-329,-347,-66,-257,16,2024-01-24 15:33:04,0.0
4051,-369,-417,-63,-328,55,2024-01-24 15:33:04,0.0
3716,-309,-630,-138,-417,100,2024-01-24 15:33:04,0.0
3570,-286,-373,-134,-483,72,2024-01-24 15:33:05,0.0
3392,-635,-562,3,-642,97,2024-01-24 15:33:05,0.0
3162,52,-538,-99,-736,106,2024-01-24 15:33:05,0.0
3495,-292,-672,-235,-937,280,2024-01-24 15:33:05,0.0
3748,-591,-1094,-76,-1008,93,2024-01-24 15:33:05,0.0
4025,-462,-807,-255,-970,156,2024-01-24 15:33:05,0.0
3638,-343,-1048,135,-946,289,2024-01-24 15:33:05,0.0
4886,-545,-1603,63,-1133,364,2024-01-24 15:33:05,0.0
4187,-796,-1940,248,-463,159,2024-01-24 15:33:05,0.0
2888,-1354,-2876,-79,203,151,2024-01-24 15:33:05,0.0
4740,464,-1775,512,-1080,258,2024-01-24 15:33:05,0.0
4362,-1417,-3025,78,-1786,521,2024-01-24 15:33:05,0.0
3232,-1377,-2923,209,-1300,281,2024-01-24 15:33:05,0.0
4078,-1034,-3772,96,-1077,12,2024-01-24 15:33:05,0.0
3326,-1015,-3769,171,-806,44,2024-01-24 15:33:05,0.0
3224,-1411,-3750,63,-423,12,2024-01-24 15:33:05,0.0
3081,-1232,-3779,88,-23,33,2024-01-24 15:33:05,0.0
3235,-1412,-4243,-20,173,14,2024-01-24 15:33:05,0.0
3348,-1471,-4236,-10,520,-81,2024-01-24 15:33:06,0.0
3547,-1342,-4073,-24,651,-69,2024-01-24 15:33:06,0.0
3496,-1316,-3391,-86,799,-168,2024-01-24 15:33:06,0.0
3745,-1122,-3241,-40,987,-216,2024-01-24 15:33:06,0.0
3323,-996,-2568,-56,1270,-237,2024-01-24 15:33:06,0.0
3570,-793,-2403,-117,876,-224,2024-01-24 15:33:06,0.0
3585,-798,-2024,-163,1258,-302,2024-01-24 15:33:06,0.0
3279,-731,-1651,-149,1005,-257,2024-01-24 15:33:06,0.0
3301,-643,-1222,-100,964,-305,2024-01-24 15:33:06,0.0
3473,-716,-1157,-6,907,-127,2024-01-24 15:33:06,0.0
3130,-628,-1348,37,219,-202,2024-01-24 15:33:06,0.0
3425,-441,-716,-104,420,-186,2024-01-24 15:33:06,0.0
3964,-581,-1118,-47,449,-80,2024-01-24 15:33:06,0.0
3800,-366,-693,-121,419,-165,2024-01-24 15:33:06,0.0
3981,-471,-1030,-259,407,-142,2024-01-24 15:33:06,0.0
3899,-832,-580,-175,540,-145,2024-01-24 15:33:06,0.0
4234,-289,-701,-65,242,-156,2024-01-24 15:33:06,0.0
4491,-302,-465,-205,562,-153,2024-01-24 15:33:07,0.0
4135,-292,-405,-218,422,-103,2024-01-24 15:33:07,0.0
4185,-468,-308,-236,406,-70,2024-01-24 15:33:07,0.0
4506,-383,-356,-155,439,-35,2024-01-24 15:33:07,0.0
4004,-312,92,-192,349,-21,2024-01-24 15:33:07,0.0
4379,-417,-111,-161,85,31,2024-01-24 15:33:07,0.0
4377,-465,-61,-45,164,-11,2024-01-24 15:33:07,0.0
4365,-243,24,-56,156,-48,2024-01-24 15:33:07,0.0
4321,-266,219,-50,107,1,2024-01-24 15:33:07,0.0
4311,-238,267,-47,84,-24,2024-01-24 15:33:07,0.0
4304,-289,181,-23,25,-6,2024-01-24 15:33:07,0.0
4325,-283,261,12,83,-21,2024-01-24 15:33:07,0.0
4200,-235,171,73,-47,-15,2024-01-24 15:33:07,0.0
4311,-262,93,104,-157,35,2024-01-24 15:33:07,0.0
4108,-322,-29,94,-397,67,2024-01-24 15:33:07,0.0
4192,-326,-161,157,-682,110,2024-01-24 15:33:07,0.0
4081,-378,-486,157,-706,151,2024-01-24 15:33:07,0.0
4034,-424,-549,162,-879,156,2024-01-24 15:33:07,0.0
3669,-419,-826,191,-1099,242,2024-01-24 15:33:08,0.0
3445,-413,-1145,90,-1464,336,2024-01-24 15:33:08,0.0
3676,-543,-1039,7,-1319,355,2024-01-24 15:33:08,0.0
3288,-619,-1512,64,-1353,362,2024-01-24 15:33:08,0.0
3304,-810,-1143,111,-1143,331,2024-01-24 15:33:08,0.0
3260,-582,-1508,139,-1442,324,2024-01-24 15:33:08,0.0
4088,-643,-1904,364,-924,207,2024-01-24 15:33:08,0.0
3277,-1047,-2066,-90,-795,-88,2024-01-24 15:33:08,0.0
1955,-928,-2178,551,-926,230,2024-01-24 15:33:08,0.0
4021,-1139,-3752,342,-1950,126,2024-01-24 15:33:08,0.0
2931,-1283,-3234,435,-1225,48,2024-01-24 15:33:08,0.0
3256,-1339,-4197,402,-1521,-39,2024-01-24 15:33:08,0.0
2705,-1467,-4297,198,-1016,-120,2024-01-24 15:33:08,0.0
2424,-1744,-4385,106,-744,-169,2024-01-24 15:33:08,0.0
2307,-1569,-4352,127,-540,-56,2024-01-24 15:33:08,0.0
1939,-1674,-4312,25,-358,-55,2024-01-24 15:33:08,0.0
1738,-1551,-3990,45,-189,-19,2024-01-24 15:33:08,0.0
1678,-1576,-4001,72,-550,110,2024-01-24 15:33:09,0.0
1778,-1829,-4626,11,-260,127,2024-01-24 15:33:09,0.0
1719,-1731,-4912,-21,135,186,2024-01-24 15:33:09,0.0
2004,-1871,-4772,-4,635,194,2024-01-24 15:33:09,0.0
2032,-1644,-4279,-115,909,133,2024-01-24 15:33:09,0.0
2308,-1548,-3816,-294,1082,-28,2024-01-24 15:33:09,0.0
2255,-1288,-3277,-315,1267,-124,2024-01-24 15:33:09,0.0
2570,-1086,-3197,-432,1110,-73,2024-01-24 15:33:09,0.0
2805,-1079,-2732,-465,1556,-203,2024-01-24 15:33:09,0.0
2699,-857,-2375,-488,1508,-266,2024-01-24 15:33:09,0.0
2802,-592,-2244,-419,1305,-149,2024-01-24 15:33:09,0.0
3239,-679,-2197,-462,1271,33,2024-01-24 15:33:09,
3647,-831,-2232,-519,1367,-125,2024-01-24 15:33:09,0.0
3671,-778,-1787,-601,1591,-252,2024-01-24 15:33:09,0.0
3561,-529,-1584,-423,1159,-215,2024-01-24 15:33:09,0.0
3497,-592,-963,-456,875,-120,2024-01-24 15:33:09,0.0
3953,-672,-1228,-393,600,-51,2024-01-24 15:33:09,0.0
4202,-739,-1146,-333,662,-120,2024-01-24 15:33:09,0.0
3985,-681,-904,-152,744,-161,2024-01-24 15:33:10,0.0
4190,-472,-601,-87,473,-129,2024-01-24 15:33:10,0.0
4301,-383,-780,-116,603,-117,2024-01-24 15:33:10,0.0
4143,-482,-506,-88,580,-100,2024-01-24 15:33:10,0.0
4168,-411,-364,12,458,-79,2024-01-24 15:33:10,0.0
4259,-266,-448,-34,379,-67,2024-01-24 15:33:10,0.0
4093,-348,-187,-70,262,-79,2024-01-24 15:33:10,0.0
4234,-253,-134,-102,115,-8,2024-01-24 15:33:10,0.0
4147,-378,-17,-101,19,1,2024-01-24 15:33:10,0.0
4299,-448,-98,-38,-33,28,2024-01-24 15:33:10,0.0
4260,-392,53,38,-81,18,2024-01-24 15:33:10,0.0
4320,-298,-137,57,-96,3,2024-01-24 15:33:10,0.0
4180,-292,-188,38,-187,24,2024-01-24 15:33:10,0.0
4065,-327,-393,-36,-242,39,2024-01-24 15:33:10,0.0
4300,-375,-384,-56,-303,73,2024-01-24 15:33:10,0.0
3871,-424,-522,35,-576,73,2024-01-24 15:33:10,0.0
3758,-506,-516,121,-746,174,2024-01-24 15:33:10,0.0
3625,-391,-653,212,-997,216,2024-01-24 15:33:11,0.0
3169,-480,-1036,253,-1337,318,2024-01-24 15:33:11,0.0
3862,-219,-1105,181,-1721,338,2024-01-24 15:33:11,0.0
4327,-1020,-2156,-39,-1547,266,2024-01-24 15:33:11,0.0
3388,-238,-1272,202,-1305,257,2024-01-24 15:33:11,0.0
3634,-761,-1651,221,-1666,608,2024-01-24 15:33:11,0.0
2233,-1114,-1852,87,-652,233,2024-01-24 15:33:11,0.0
4021,-472,-2704,431,-2053,47,2024-01-24 15:33:11,0.0
2833,-1691,-2418,377,-1155,-24,2024-01-24 15:33:11,0.0
2868,-471,-3477,413,-1189,0,2024-01-24 15:33:11,0.0
2746,-1417,-3315,416,-1083,100,2024-01-24 15:33:11,0.0
3247,-1316,-4343,82,-656,-216,2024-01-24 15:33:11,0.0
2257,-1702,-4085,187,-659,-167,2024-01-24 15:33:11,0.0
2223,-1619,-3995,145,-387,-131,2024-01-24 15:33:11,0.0
2457,-1488,-4587,58,-215,-86,2024-01-24 15:33:11,0.0
2214,-1844,-4142,-8,26,-77,2024-01-24 15:33:11,0.0
2302,-1721,-4540,12,62,-1,2024-01-24 15:33:11,0.0
2399,-1663,-4465,-40,348,29,2024-01-24 15:33:11,0.0
2637,-1746,-4420,-67,547,28,2024-01-24 15:33:12,0.0
2812,-1583,-4148,-123,879,19,2024-01-24 15:33:12,0.0
2970,-1655,-3873,-181,862,-29,2024-01-24 15:33:12,0.0
3088,-1371,-3505,-118,1041,-83,2024-01-24 15:33:12,0.0
3327,-1233,-3212,-243,1298,-152,2024-01-24 15:33:12,0.0
3190,-1127,-2731,-378,1412,-228,2024-01-24 15:33:12,0.0
3124,-969,-2147,-364,1378,-227,2024-01-24 15:33:12,0.0
3234,-655,-1792,-462,1370,-315,2024-01-24 15:33:12,0.0
3253,-506,-1444,-529,1404,-335,2024-01-24 15:33:12,0.0
3633,-822,-1508,-369,1305,-279,2024-01-24 15:33:12,0.0
3025,-546,-1393,-227,725,-439,2024-01-24 15:33:12,0.0
3264,-514,-991,-254,746,-178,2024-01-24 15:33:12,0.0
3742,-390,-714,-280,691,-175,2024-01-24 15:33:12,0.0
4331,-238,-941,-349,655,-123,2024-01-24 15:33:12,0.0
4176,-505,-771,-389,896,-219,2024-01-24 15:33:12,0.0
3782,-522,-383,-249,800,-158,2024-01-24 15:33:12,0.0
4265,-318,-263,-132,446,-120,2024-01-24 15:33:12,0.0
4203,-371,-244,-121,465,-52,2024-01-24 15:33:13,0.0
4200,-279,-164,-109,276,-64,2024-01-24 15:33:13,0.0
4368,-252,-42,-119,274,-54,2024-01-24 15:33:13,0.0
4167,-207,122,-100,184,-4,2024-01-24 15:33:13,0.0
4408,-389,12,-72,76,-16,2024-01-24 15:33:13,0.0
4198,-135,199,-39,119,-14,2024-01-24 15:33:13,0.0
4367,-325,207,-33,29,-6,2024-01-24 15:33:13,0.0
4228,-258,231,22,28,-14,2024-01-24 15:33:13,0.0
4287,-140,305,-5,3,6,2024-01-24 15:33:13,0.0
4274,-229,298,-5,-32,24,2024-01-24 15:33:13,0.0
4323,-202,306,4,-35,9,2024-01-24 15:33:13,0.0
4276,-242,278,26,-94,7,2024-01-24 15:33:13,0.0
4233,-247,177,79,-201,27,2024-01-24 15:33:13,0.0
4361,-139,122,74,-278,49,2024-01-24 15:33:13,0.0
4250,-437,-52,148,-393,63,2024-01-24 15:33:13,0.0
4147,-275,-211,257,-664,92,2024-01-24 15:33:13,0.0
4123,-185,-434,163,-768,106,2024-01-24 15:33:13,0.0
4038,-319,-600,185,-869,194,2024-01-24 15:33:13,0.0
3784,-484,-597,226,-978,255,2024-01-24 15:33:14,0.0
3543,-343,-1142,247,-1343,288,2024-01-24 15:33:14,0.0
3869,-811,-1021,295,-1132,349,2024-01-24 15:33:14,0.0
3701,-527,-1354,358,-1019,367,2024-01-24 15:33:14,0.0
3134,-378,-1114,195,-1469,603,2024-01-24 15:33:14,0.0
3272,-899,-1900,241,-1455,579,2024-01-24 15:33:14,0.0
3302,-482,-1905,203,-1296,468,2024-01-24 15:33:14,0.0
3072,-1102,-1280,55,-706,487,2024-01-24 15:33:14,0.0
4900,-1230,-3102,546,-2549,222,2024-01-24 15:33:14,0.0
3228,-1101,-2705,308,-1733,178,2024-01-24 15:33:14,0.0
2719,-1354,-3374,328,-1145,37,2024-01-24 15:33:14,0.0
2659,-1841,-3580,226,-758,-109,2024-01-24 15:33:14,0.0
2676,-1458,-4148,118,-1039,-228,2024-01-24 15:33:14,0.0
2185,-1861,-4102,-93,-407,-205,2024-01-24 15:33:14,0.0
2326,-1731,-4172,-70,-513,-115,2024-01-24 15:33:14,0.0
2017,-1755,-4342,-143,-379,-116,2024-01-24 15:33:14,0.0
1782,-1692,-4031,-154,-275,-69,2024-01-24 15:33:14,0.0
1822,-1791,-4271,-95,-362,-15,2024-01-24 15:33:15,0.0
2147,-1855,-5039,-35,96,48,2024-01-24 15:33:15,0.0
2241,-1996,-5037,-39,298,98,2024-01-24 15:33:15,0.0
2586,-1995,-4984,-60,817,99,2024-01-24 15:33:15,0.0
2875,-1810,-4497,-165,1221,105,2024-01-24 15:33:15,0.0
3219,-1621,-3967,-349,1489,-29,2024-01-24 15:33:15,0.0
3092,-1245,-3127,-416,1643,-139,2024-01-24 15:33:15,
3128,-946,-2603,-459,1921,-159,2024-01-24 15:33:15,0.0
3091,-789,-2351,-609,1764,-257,2024-01-24 15:33:15,0.0
2897,-703,-1921,-595,1629,-336,2024-01-24 15:33:15,0.0
2907,-227,-1363,-690,1465,-258,2024-01-24 15:33:15,0.0
3471,-678,-1539,-703,1208,-227,2024-01-24 15:33:15,0.0
2917,-588,-1369,-398,784,-165,2024-01-24 15:33:15,0.0
3180,-149,-1183,-418,817,-149,2024-01-24 15:33:15,0.0
3517,-454,-989,-682,668,-132,2024-01-24 15:33:15,0.0
4010,-674,-1058,-475,718,-25,2024-01-24 15:33:15,0.0
4018,-694,-819,-356,796,-104,2024-01-24 15:33:15,0.0
4270,-555,-390,-111,653,-78,2024-01-24 15:33:15,0.0
4019,-451,-465,-69,434,-76,2024-01-24 15:33:16,0.0
4235,-242,-347,-19,422,-38,2024-01-24 15:33:16,0.0
4294,-515,-156,10,307,-45,2024-01-24 15:33:16,0.0
4287,-386,-312,79,356,-47,2024-01-24 15:33:16,0.0
4309,-211,50,63,298,-30,2024-01-24 15:33:16,0.0
4267,-347,45,78,311,-8,2024-01-24 15:33:16,0.0
4174,-242,158,28,54,1,2024-01-24 15:33:16,0.0
4278,-266,115,58,48,39,2024-01-24 15:33:16,0.0
4233,-326,186,57,-81,30,2024-01-24 15:33:16,0.0
4374,-288,114,71,-96,35,2024-01-24 15:33:16,0.0
4148,-337,38,99,-196,-33,2024-01-24 15:33:16,0.0
4200,-237,-229,83,-435,20,2024-01-24 15:33:16,0.0
4168,-334,-268,59,-565,66,2024-01-24 15:33:16,0.0
3754,-478,-702,84,-874,118,2024-01-24 15:33:16,0.0
4021,-308,-691,97,-1205,121,2024-01-24 15:33:16,0.0
3678,-442,-1013,208,-1437,205,2024-01-24 15:33:16,0.0
3421,-239,-1103,19,-1588,197,2024-01-24 15:33:16,0.0
3707,-564,-1518,88,-1663,277,2024-01-24 15:33:17,0.0
3595,-899,-1560,234,-1191,149,2024-01-24 15:33:17,0.0
2960,-777,-1406,443,-1263,163,2024-01-24 15:33:17,0.0
3123,-72,-1436,342,-1650,246,2024-01-24 15:33:17,0.0
4239,-968,-2929,232,-822,247,2024-01-24 15:33:17,0.0
295,-1007,-2419,401,-1501,406,2024-01-24 15:33:17,0.0
3912,-372,-3083,828,-1247,397,2024-01-24 15:33:17,0.0
2992,-1610,-3477,309,-1661,191,2024-01-24 15:33:17,0.0
2822,-1141,-3988,272,-1189,-117,2024-01-24 15:33:17,0.0
2195,-1391,-4301,301,-1485,-106,2024-01-24 15:33:17,0.0
2377,-1820,-4263,-48,-420,-165,2024-01-24 15:33:17,0.0
1925,-1496,-4586,46,-982,-131,2024-01-24 15:33:17,0.0
1938,-1838,-4545,3,-57,-191,2024-01-24 15:33:17,0.0
1896,-1918,-5037,-11,-76,-41,2024-01-24 15:33:17,0.0
1887,-1828,-4882,-69,438,24,2024-01-24 15:33:17,0.0
2102,-1837,-4908,-58,765,59,2024-01-24 15:33:17,0.0
2368,-1713,-4554,-155,1140,-4,2024-01-24 15:33:17,0.0
2724,-1518,-4131,-179,1184,-49,2024-01-24 15:33:17,0.0
2897,-1396,-3648,-242,1260,-106,2024-01-24 15:33:18,0.0
2907,-1111,-3028,-269,1459,-160,2024-01-24 15:33:18,0.0
3009,-906,-2752,-394,1286,-170,2024-01-24 15:33:18,0.0
2883,-700,-1973,-401,1684,-269,2024-01-24 15:33:18,0.0
2868,-603,-2025,-429,1605,-216,2024-01-24 15:33:18,0.0
3585,-821,-2043,-444,1316,-294,2024-01-24 15:33:18,0.0
3182,-547,-1415,-332,1167,-302,2024-01-24 15:33:18,0.0
3317,-235,-1454,-479,952,-237,2024-01-24 15:33:18,0.0
3898,-682,-1681,-488,1093,-137,2024-01-24 15:33:18,0.0
3556,-432,-1157,-423,1146,-172,2024-01-24 15:33:18,0.0
3922,-612,-926,-381,1041,-115,2024-01-24 15:33:18,0.0
3861,-387,-592,-332,747,-117,2024-01-24 15:33:18,0.0
4023,-483,-570,-286,454,-83,2024-01-24 15:33:18,0.0
4249,-454,-501,-177,531,-49,2024-01-24 15:33:18,0.0
4330,-397,-443,-225,539,-90,2024-01-24 15:33:18,0.0
4260,-224,-241,-254,575,-41,2024-01-24 15:33:18,0.0
4319,-485,-32,-234,425,-44,2024-01-24 15:33:18,0.0
4117,-356,208,-110,327,-3,2024-01-24 15:33:19,0.0
4430,-275,170,-96,180,-40,2024-01-24 15:33:19,0.0
4126,-352,225,-65,131,-28,2024-01-24 15:33:19,0.0
4352,-139,214,-106,52,2,2024-01-24 15:33:19,0.0
4367,-361,340,-46,142,-23,2024-01-24 15:33:19,0.0
4286,-194,297,-50,-4,1,2024-01-24 15:33:19,0.0
4419,-251,379,-59,11,8,2024-01-24 15:33:19,0.0
4381,-302,296,-26,41,14,2024-01-24 15:33:19,0.0
4305,-256,395,6,0,24,2024-01-24 15:33:19,0.0
4287,-309,304,25,-115,36,2024-01-24 15:33:19,0.0
4344,-328,202,55,-104,32,2024-01-24 15:33:19,0.0
4195,-219,105,35,-269,56,2024-01-24 15:33:19,0.0
4213,-432,29,99,-413,88,2024-01-24 15:33:19,0.0
4216,-396,-78,164,-602,142,2024-01-24 15:33:19,0.0
4105,-355,-576,203,-819,168,2024-01-24 15:33:19,0.0
4028,-449,-588,250,-960,164,2024-01-24 15:33:19,0.0
3755,-360,-750,248,-1108,210,2024-01-24 15:33:19,0.0
3256,-432,-1017,137,-1487,336,2024-01-24 15:33:19,0.0
3254,-682,-1140,233,-1746,415,2024-01-24 15:33:20,0.0
3140,-703,-1366,404,-1371,332,2024-01-24 15:33:20,0.0
2972,105,-906,342,-1012,260,2024-01-24 15:33:20,0.0
3082,-337,-1004,246,-1726,425,2024-01-24 15:33:20,0.0
4473,-816,-2579,-42,-878,159,2024-01-24 15:33:20,0.0
4251,-2022,-2242,176,-2234,188,2024-01-24 15:33:20,0.0
3940,-948,-3674,445,-1818,62,2024-01-24 15:33:20,0.0
2931,-1375,-3506,459,-1396,66,2024-01-24 15:33:20,0.0
3190,-1589,-4375,239,-1422,146,2024-01-24 15:33:20,0.0
2110,-1505,-3557,145,-1194,-97,2024-01-24 15:33:20,0.0
2564,-1542,-4165,221,-1156,-44,2024-01-24 15:33:20,0.0
2019,-1732,-4404,48,-508,-29,2024-01-24 15:33:20,0.0
1624,-1268,-3955,123,-783,72,2024-01-24 15:33:20,0.0
1780,-1768,-4426,-53,-262,73,2024-01-24 15:33:20,0.0
1567,-1747,-4367,-73,-360,81,2024-01-24 15:33:20,0.0
1743,-1955,-5057,-126,134,98,2024-01-24 15:33:20,0.0
1692,-1776,-4827,-45,338,216,2024-01-24 15:33:20,0.0
2008,-1939,-4965,-110,892,169,2024-01-24 15:33:21,0.0
2368,-1720,-4817,-174,1322,79,2024-01-24 15:33:21,
2568,-1529,-4267,-244,1526,-84,2024-01-24 15:33:21,0.0
2920,-1233,-3518,-364,1421,-202,2024-01-24 15:33:21,0.0
2980,-964,-3036,-472,1763,-301,2024-01-24 15:33:21,0.0
2756,-912,-2285,-485,2023,-327,2024-01-24 15:33:21,0.0
2860,-715,-1940,-381,1917,-397,2024-01-24 15:33:21,0.0
2854,-394,-1670,-465,1589,-456,2024-01-24 15:33:21,0.0
3186,-539,-1368,-495,1711,-348,2024-01-24 15:33:21,0.0
3137,-649,-1600,-316,984,-291,2024-01-24 15:33:21,0.0
3814,-374,-1172,-336,801,-161,2024-01-24 15:33:21,0.0
3779,-451,-1152,-464,681,-104,2024-01-24 15:33:21,0.0
4103,-768,-1007,-401,1012,-122,2024-01-24 15:33:21,0.0
3802,-495,-837,-354,751,-117,2024-01-24 15:33:21,0.0
4146,-390,-544,-304,630,-135,2024-01-24 15:33:21,0.0
4120,-539,-323,-173,438,-45,2024-01-24 15:33:21,0.0
4300,-210,-335,-194,393,-115,2024-01-24 15:33:21,0.0
4285,-488,-178,-95,311,28,2024-01-24 15:33:21,0.0
4279,-236,-44,-82,208,-51,2024-01-24 15:33:22,0.0
4385,-252,-42,-74,171,19,2024-01-24 15:33:22,0.0
4234,-275,-64,-65,53,-10,2024-01-24 15:33:22,0.0
4393,-239,43,-90,61,2,2024-01-24 15:33:22,0.0
4207,-330,252,-3,7,22,2024-01-24 15:33:22,0.0
4278,-267,168,34,-37,18,2024-01-24 15:33:22,0.0
4307,-300,81,66,-124,32,2024-01-24 15:33:22,0.0
4406,-184,159,15,-20,13,2024-01-24 15:33:22,0.0
4300,-286,160,-42,-47,13,2024-01-24 15:33:22,0.0
4300,-306,141,1,-75,27,2024-01-24 15:33:22,0.0
4259,-295,48,33,-182,29,2024-01-24 15:33:22,0.0
4239,-384,-153,109,-267,57,2024-01-24 15:33:22,0.0
4184,-325,-242,80,-442,81,2024-01-24 15:33:22,0.0
4168,-311,-469,112,-604,123,2024-01-24 15:33:22,0.0
4061,-559,-624,180,-762,154,2024-01-24 15:33:22,0.0
3916,-345,-827,171,-1007,140,2024-01-24 15:33:22,0.0
3914,-581,-943,212,-1232,310,2024-01-24 15:33:22,0.0
3898,-771,-1338,323,-1344,304,2024-01-24 15:33:23,0.0
3384,-342,-1393,278,-1365,211,2024-01-24 15:33:23,0.0
3069,-647,-1410,301,-1500,355,2024-01-24 15:33:23,0.0
2987,-787,-1629,392,-1599,316,2024-01-24 15:33:23,0.0
2974,-1230,-2060,725,-1661,404,2024-01-24 15:33:23,0.0
2883,-744,-1796,741,-952,146,2024-01-24 15:33:23,0.0
2122,-79,-1770,604,-2923,299,2024-01-24 15:33:23,0.0
3079,-1176,-2981,356,-2415,327,2024-01-24 15:33:23,0.0
3306,-1710,-3594,161,-1598,-44,2024-01-24 15:33:23,0.0
1834,-1248,-4210,196,-1910,-223,2024-01-24 15:33:23,0.0
2715,-2116,-5160,168,-394,-164,2024-01-24 15:33:23,0.0
1931,-2124,-4841,177,-290,-186,2024-01-24 15:33:23,0.0
1905,-2026,-4793,-16,42,-181,2024-01-24 15:33:23,0.0
1915,-2233,-4639,-77,118,-90,2024-01-24 15:33:23,0.0
1838,-1968,-4682,-151,134,-59,2024-01-24 15:33:23,0.0
2089,-1999,-5042,-278,299,11,2024-01-24 15:33:23,0.0
2290,-1955,-4900,-259,682,-11,2024-01-24 15:33:23,0.0
2733,-1674,-4708,-227,1221,23,2024-01-24 15:33:23,0.0
2753,-1676,-3943,-252,1333,-8,2024-01-24 15:33:24,0.0
2994,-1313,-3621,-351,1372,-45,2024-01-24 15:33:24,0.0
3042,-1080,-3149,-414,1407,-16,2024-01-24 15:33:24,0.0
3065,-895,-2557,-444,1578,-141,2024-01-24 15:33:24,0.0
2836,-789,-2004,-457,1541,-154,2024-01-24 15:33:24,0.0
2803,-511,-1759,-462,1551,-267,2024-01-24 15:33:24,0.0
2835,-402,-1454,-527,1458,-253,2024-01-24 15:33:24,0.0
3157,-435,-1648,-485,1085,-184,2024-01-24 15:33:24,0.0
3600,-612,-1478,-544,998,-185,2024-01-24 15:33:24,0.0
3791,-413,-1153,-567,1169,-214,2024-01-24 15:33:24,0.0
3650,-569,-1098,-500,787,-106,2024-01-24 15:33:24,0.0
3897,-665,-912,-366,811,-127,2024-01-24 15:33:24,0.0
4255,-547,-770,-297,612,-159,2024-01-24 15:33:24,0.0
3943,-561,-660,-180,573,-131,2024-01-24 15:33:24,0.0
4199,-418,-478,-152,286,-110,2024-01-24 15:33:24,0.0
4201,-405,-554,-179,325,5,2024-01-24 15:33:24,0.0
4185,-424,-151,-172,203,-27,2024-01-24 15:33:24,0.0
4487,-285,-194,-179,160,-30,2024-01-24 15:33:25,0.0
4273,-322,67,-198,188,-28,2024-01-24 15:33:25,0.0
4424,-320,-11,-169,52,-17,2024-01-24 15:33:25,0.0
4286,-367,-7,-134,72,4,2024-01-24 15:33:25,0.0
4372,-418,13,-36,-13,12,2024-01-24 15:33:25,0.0
4221,-378,-120,50,-76,32,2024-01-24 15:33:25,0.0
4175,-279,-208,87,-234,52,2024-01-24 15:33:25,0.0
4183,-363,-451,82,-413,93,2024-01-24 15:33:25,0.0
4102,-422,-689,113,-602,95,2024-01-24 15:33:25,0.0
3918,-384,-851,95,-813,130,2024-01-24 15:33:25,0.0
3459,-486,-860,65,-1052,215,2024-01-24 15:33:25,0.0
3650,-490,-1303,77,-1535,296,2024-01-24 15:33:25,0.0
3208,-370,-1291,13,-1400,355,2024-01-24 15:33:25,0.0
3042,-448,-1363,-163,-1815,442,2024-01-24 15:33:25,0.0
3377,-671,-1719,-130,-1864,469,2024-01-24 15:33:25,0.0
3581,-834,-1921,-216,-1727,363,2024-01-24 15:33:25,0.0
5208,-812,-3100,-156,-4267,322,2024-01-24 15:33:25,0.0
2949,-580,-2980,-300,-1707,208,2024-01-24 15:33:25,0.0
3082,-657,-3797,-778,-2112,95,2024-01-24 15:33:26,0.0
1819,-961,-3897,-260,-1443,165,2024-01-24 15:33:26,0.0
2185,-514,-4769,-348,-2069,271,2024-01-24 15:33:26,0.0
1175,-780,-4680,-357,-1352,136,2024-01-24 15:33:26,0.0
907,-539,-4884,-161,-919,99,2024-01-24 15:33:26,0.0
665,-390,-4863,-143,-422,-8,2024-01-24 15:33:26,0.0
427,-363,-4864,-82,-170,-12,2024-01-24 15:33:26,0.0
221,-335,-4788,-81,16,17,2024-01-24 15:33:26,0.0
167,-421,-4564,-54,-4,18,2024-01-24 15:33:26,0.0
227,-473,-4754,-33,-91,-23,2024-01-24 15:33:26,0.0
395,-565,-5228,27,-7,-87,2024-01-24 15:33:26,0.0
554,-599,-5579,133,348,-147,2024-01-24 15:33:26,0.0
808,-575,-5354,123,1021,-219,2024-01-24 15:33:26,0.0
1226,-677,-5154,201,1402,-280,2024-01-24 15:33:26,
1546,-578,-4392,169,1632,-344,2024-01-24 15:33:26,0.0
1927,-596,-3924,254,1757,-280,2024-01-24 15:33:26,0.0
1972,-497,-3230,204,1827,-267,2024-01-24 15:33:26,0.0
2379,-444,-3050,204,1713,-269,2024-01-24 15:33:26,0.0
2677,-506,-2867,155,1967,-264,2024-01-24 15:33:27,0.0
2788,-368,-2415,84,1927,-301,2024-01-24 15:33:27,0.0
3026,-468,-2079,40,1547,-217,2024-01-24 15:33:27,0.0
3417,-411,-2027,17,1555,-230,2024-01-24 15:33:27,0.0
3375,-592,-1924,76,1460,-234,2024-01-24 15:33:27,0.0
3706,-504,-1514,138,1252,-186,2024-01-24 15:33:27,0.0
3211,-510,-768,81,639,-69,2024-01-24 15:33:27,0.0
4287,-402,-1387,46,601,-36,2024-01-24 15:33:27,0.0
4210,-919,-944,-119,959,-190,2024-01-24 15:33:27,0.0
3834,-362,-672,208,642,-104,2024-01-24 15:33:27,0.0
4340,-376,-835,84,576,-133,2024-01-24 15:33:27,0.0
4173,-306,-423,99,709,-98,2024-01-24 15:33:27,0.0
4044,-178,-450,-41,396,-110,2024-01-24 15:33:27,0.0
4509,-405,-420,-70,366,-43,2024-01-24 15:33:27,0.0
4174,-288,100,-39,472,-95,2024-01-24 15:33:27,0.0
4234,-218,38,-24,207,-21,2024-01-24 15:33:27,0.0
4344,-269,92,-33,85,-36,2024-01-24 15:33:27,0.0
4307,-322,148,-10,33,-7,2024-01-24 15:33:28,0.0
4171,-278,181,-4,-236,-21,2024-01-24 15:33:28,0.0
4457,-245,-138,-53,-340,34,2024-01-24 15:33:28,0.0
4128,-436,-142,83,-445,85,2024-01-24 15:33:28,0.0
4171,-380,-268,178,-606,110,2024-01-24 15:33:28,0.0
4047,-554,-468,317,-822,146,2024-01-24 15:33:28,0.0
3682,-355,-817,389,-1068,198,2024-01-24 15:33:28,0.0
3062,-494,-856,365,-1223,303,2024-01-24 15:33:28,0.0
2955,-206,-715,300,-1643,397,2024-01-24 15:33:28,0.0
3327,-267,-789,273,-1274,286,2024-01-24 15:33:28,0.0
3525,-655,-1079,229,-983,173,2024-01-24 15:33:28,0.0
3441,-134,-885,349,-1292,258,2024-01-24 15:33:28,0.0
3664,-770,-1720,269,-760,208,2024-01-24 15:33:28,0.0
3328,-1149,-2171,428,-333,87,2024-01-24 15:33:28,0.0
3989,-711,-2586,174,-400,-350,2024-01-24 15:33:28,0.0
4285,-987,-2706,317,-549,-85,2024-01-24 15:33:28,0.0
3888,-1504,-2794,270,-419,-200,2024-01-24 15:33:28,0.0
3907,-928,-3223,435,-858,-29,2024-01-24 15:33:29,0.0
3585,-1064,-3104,295,-521,-131,2024-01-24 15:33:29,0.0
4398,-1381,-3677,143,-697,-85,2024-01-24 15:33:29,0.0
3809,-1247,-3695,28,99,-174,2024-01-24 15:33:29,0.0
3982,-1466,-3879,-37,49,-3,2024-01-24 15:33:29,0.0
4107,-1411,-3727,-73,319,23,2024-01-24 15:33:29,0.0
4246,-1420,-3869,-153,378,36,2024-01-24 15:33:29,0.0
4170,-1268,-3465,-250,614,1,2024-01-24 15:33:29,0.0
4229,-1137,-3199,-318,654,-4,2024-01-24 15:33:29,0.0
4104,-1050,-2632,-407,857,-70,2024-01-24 15:33:29,0.0
3765,-935,-2209,-439,821,-115,2024-01-24 15:33:29,0.0
3644,-760,-1879,-432,788,-85,2024-01-24 15:33:29,0.0
3600,-501,-1489,-400,927,-38,2024-01-24 15:33:29,0.0
3418,-550,-1405,-455,757,-187,2024-01-24 15:33:29,0.0
2508,-388,-947,-255,214,21,2024-01-24 15:33:29,0.0
3149,-406,-1079,-385,506,-15,2024-01-24 15:33:29,0.0
3191,-249,-1012,-466,575,-23,2024-01-24 15:33:29,0.0
3413,-367,-914,-448,668,31,2024-01-24 15:33:29,0.0
4003,-580,-946,-520,560,-9,2024-01-24 15:33:30,0.0
4030,-398,-885,-419,708,-28,2024-01-24 15:33:30,0.0
3945,-594,-685,-466,671,-48,2024-01-24 15:33:30,0.0
3939,-585,-675,-276,305,-26,2024-01-24 15:33:30,0.0
4429,-346,-730,-245,407,-80,2024-01-24 15:33:30,0.0
4070,-212,-621,-450,353,-80,2024-01-24 15:33:30,0.0
4024,-437,-468,-502,140,14,2024-01-24 15:33:30,0.0
4395,-575,-437,-365,184,-46,2024-01-24 15:33:30,0.0
3991,-233,-453,-341,-12,-18,2024-01-24 15:33:30,0.0
4277,-78,-489,-403,-148,-68,2024-01-24 15:33:30,0.0
4173,-191,-460,-358,-87,12,2024-01-24 15:33:30,0.0
4721,-415,-553,-64,-154,-28,2024-01-24 15:33:30,0.0
4010,-105,-446,-63,-209,-112,2024-01-24 15:33:30,0.0
4224,-203,-536,169,-398,57,2024-01-24 15:33:30,0.0
4376,-22,-668,162,-309,20,2024-01-24 15:33:30,0.0
4437,-189,-518,81,-245,75,2024-01-24 15:33:30,0.0
4287,-309,-540,189,-204,23,2024-01-24 15:33:30,0.0
4364,-281,-743,208,-183,42,2024-01-24 15:33:31,0.0
4214,-246,-849,194,-148,-6,2024-01-24 15:33:31,0.0
3990,-359,-1049,158,-309,27,2024-01-24 15:33:31,0.0
3477,-432,-1284,220,-534,113,2024-01-24 15:33:31,0.0
3375,-640,-1067,316,-654,134,2024-01-24 15:33:31,0.0
2773,-237,-941,288,-688,58,2024-01-24 15:33:31,0.0
2569,-136,-898,172,-1096,212,2024-01-24 15:33:31,0.0
3186,-397,-1160,306,-1086,343,2024-01-24 15:33:31,0.0
3612,-854,-1395,325,-708,150,2024-01-24 15:33:31,0.0
4394,-773,-1607,449,-907,180,2024-01-24 15:33:31,0.0
3619,30,-1645,437,-684,350,2024-01-24 15:33:31,0.0
3520,-1450,-2291,79,-1037,164,2024-01-24 15:33:31,0.0
3970,-1071,-2501,583,-1001,-102,2024-01-24 15:33:31,0.0
3696,-886,-2637,390,-847,-148,2024-01-24 15:33:31,0.0
4101,-1151,-3326,323,-1351,-1,2024-01-24 15:33:31,0.0
3705,-1480,-3278,345,-237,-163,2024-01-24 15:33:31,0.0
3928,-1197,-3827,298,-382,-155,2024-01-24 15:33:31,0.0
3231,-1371,-3173,172,-15,-164,2024-01-24 15:33:31,0.0
3556,-1488,-3347,47,-11,-214,2024-01-24 15:33:32,0.0
3224,-1360,-3390,63,-347,-82,2024-01-24 15:33:32,0.0
3318,-1295,-3502,0,-288,-87,2024-01-24 15:33:32,0.0
3299,-1275,-3380,70,-275,72,2024-01-24 15:33:32,0.0
3940,-1516,-4070,-2,66,157,2024-01-24 15:33:32,0.0
4079,-1493,-4049,-155,614,111,2024-01-24 15:33:32,0.0
4001,-1416,-3638,-213,778,81,2024-01-24 15:33:32,0.0
3931,-1265,-3192,-309,686,111,2024-01-24 15:33:32,0.0
3875,-1090,-2647,-387,931,77,2024-01-24 15:33:32,
2979,-980,-1868,-497,937,-21,2024-01-24 15:33:32,0.0
3416,-871,-1889,-481,678,-6,2024-01-24 15:33:32,0.0
3558,-897,-1822,-480,771,-108,2024-01-24 15:33:32,0.0
3724,-781,-1740,-444,759,-137,2024-01-24 15:33:32,0.0
3398,-487,-1371,-388,688,-176,2024-01-24 15:33:32,0.0
3090,-614,-1173,-365,432,-106,2024-01-24 15:33:32,0.0
3308,-384,-1242,-369,555,-133,2024-01-24 15:33:32,0.0
3543,-284,-1221,-494,545,-36,2024-01-24 15:33:32,0.0
3544,-563,-1298,-572,669,-32,2024-01-24 15:33:33,0.0
3679,-459,-1143,-578,924,-23,2024-01-24 15:33:33,0.0
3767,-654,-615,-462,768,-6,2024-01-24 15:33:33,0.0
4038,-671,-772,-299,385,-35,2024-01-24 15:33:33,0.0
4291,-540,-597,-165,601,-94,2024-01-24 15:33:33,0.0
4334,-476,-470,-67,509,-94,2024-01-24 15:33:33,0.0
4111,-219,-413,-156,451,-124,2024-01-24 15:33:33,0.0
4446,-339,-337,-157,375,-33,2024-01-24 15:33:33,0.0
4212,-361,-186,-159,321,-54,2024-01-24 15:33:33,0.0
4263,-380,-144,-109,155,-7,2024-01-24 15:33:33,0.0
4350,-352,-106,-49,28,9,2024-01-24 15:33:33,0.0
4308,-333,-101,-9,33,17,2024-01-24 15:33:33,0.0
4314,-263,-38,19,9,14,2024-01-24 15:33:33,0.0
4435,-278,-53,-18,18,21,2024-01-24 15:33:33,0.0
4319,-351,-71,-17,-82,36,2024-01-24 15:33:33,0.0
4239,-234,-200,-60,-215,54,2024-01-24 15:33:33,0.0
4218,-311,-323,-90,-318,79,2024-01-24 15:33:33,0.0
4213,-359,-381,-123,-461,90,2024-01-24 15:33:33,0.0
4190,-425,-624,-135,-571,112,2024-01-24 15:33:34,0.0
3954,-426,-846,-161,-817,135,2024-01-24 15:33:34,0.0
3760,-583,-1059,-104,-1100,155,2024-01-24 15:33:34,0.0
3550,-592,-1406,-47,-1387,123,2024-01-24 15:33:34,0.0
3294,-280,-1319,-219,-1572,122,2024-01-24 15:33:34,0.0
3547,-193,-1690,-436,-1714,268,2024-01-24 15:33:34,0.0
3362,-640,-1731,-471,-1509,285,2024-01-24 15:33:34,0.0
3287,-651,-2203,-349,-1787,353,2024-01-24 15:33:34,0.0
3271,-122,-2487,-649,-1332,228,2024-01-24 15:33:34,0.0
2854,-610,-3427,-857,-3711,120,2024-01-24 15:33:34,0.0
3631,-144,-4732,-1014,-1891,120,2024-01-24 15:33:34,0.0
2185,-481,-3982,-1010,-2219,309,2024-01-24 15:33:34,0.0
1695,-177,-4473,-639,-1658,225,2024-01-24 15:33:34,0.0
1438,188,-4474,-542,-1954,123,2024-01-24 15:33:34,0.0
770,49,-4217,-296,-1569,84,2024-01-24 15:33:34,0.0
523,536,-4525,-178,-1104,54,2024-01-24 15:33:34,0.0
-78,457,-4292,-159,-1038,176,2024-01-24 15:33:34,0.0
-63,599,-4595,-82,-580,95,2024-01-24 15:33:34,0.0
50,432,-5273,-211,443,-130,2024-01-24 15:33:35,0.0
-137,744,-4607,8,435,-213,2024-01-24 15:33:35,0.0
176,560,-4981,76,590,-208,2024-01-24 15:33:35,0.0
733,329,-4891,212,1477,-325,2024-01-24 15:33:35,0.0
859,250,-4389,378,1636,-275,2024-01-24 15:33:35,0.0
1512,104,-4473,589,1770,-196,2024-01-24 15:33:35,0.0
1739,151,-4057,567,1882,-217,2024-01-24 15:33:35,0.0
2138,41,-3808,586,1830,-129,2024-01-24 15:33:35,0.0
2613,-126,-3469,624,1903,-127,2024-01-24 15:33:35,0.0
2804,-315,-3135,592,2038,-156,2024-01-24 15:33:35,0.0
2906,-367,-2760,501,1793,-244,2024-01-24 15:33:35,0.0
3153,-255,-2487,515,1658,-237,2024-01-24 15:33:35,0.0
3401,-268,-2169,488,1472,-91,2024-01-24 15:33:35,0.0
3556,-364,-1835,312,1179,-143,2024-01-24 15:33:35,0.0
3602,-631,-1723,420,737,-110,2024-01-24 15:33:35,0.0
3880,-603,-1391,323,565,-167,2024-01-24 15:33:35,0.0
4161,-515,-1362,387,751,-102,2024-01-24 15:33:35,0.0
3824,-426,-1117,280,722,-122,2024-01-24 15:33:36,0.0
3935,-443,-1003,189,619,-93,2024-01-24 15:33:36,0.0
4170,-453,-990,152,540,-71,2024-01-24 15:33:36,0.0
4104,-414,-644,0,545,-107,2024-01-24 15:33:36,0.0
4307,-465,-695,19,474,-68,2024-01-24 15:33:36,0.0
4178,-620,-478,75,418,-35,2024-01-24 15:33:36,0.0
4129,-428,-392,149,237,-18,2024-01-24 15:33:36,0.0
4294,-309,-454,77,131,-12,2024-01-24 15:33:36,0.0
4238,-342,-277,-9,116,1,2024-01-24 15:33:36,0.0
4327,-413,-206,-55,37,-22,2024-01-24 15:33:36,0.0
4276,-384,-188,-73,-14,23,2024-01-24 15:33:36,0.0
4367,-430,-190,-72,-28,-14,2024-01-24 15:33:36,0.0
4361,-386,-211,-40,-30,31,2024-01-24 15:33:36,0.0
4194,-331,-280,-48,-108,22,2024-01-24 15:33:36,0.0
4300,-475,-434,-32,-236,23,2024-01-24 15:33:36,0.0
4043,-319,-560,-84,-396,27,2024-01-24 15:33:36,0.0
3912,-562,-744,-121,-547,82,2024-01-24 15:33:36,0.0
3614,-535,-865,-88,-844,139,2024-01-24 15:33:37,0.0
3747,-612,-1111,-8,-799,136,2024-01-24 15:33:37,0.0
3303,-735,-676,17,-736,80,2024-01-24 15:33:37,0.0
3103,-265,-1308,38,-1326,236,2024-01-24 15:33:37,0.0
2886,-482,-1157,39,-1367,488,2024-01-24 15:33:37,0.0
4135,-1034,-1460,139,-1730,286,2024-01-24 15:33:37,0.0
3708,-917,-2352,336,-1082,170,2024-01-24 15:33:37,0.0
3196,-381,-1364,499,-990,285,2024-01-24 15:33:37,0.0
3884,-1105,-2532,495,-2797,428,2024-01-24 15:33:37,0.0
4080,-970,-2875,416,-1137,-96,2024-01-24 15:33:37,0.0
3022,-922,-2980,553,-1018,-72,2024-01-24 15:33:37,0.0
3641,-1330,-3493,189,-879,-169,2024-01-24 15:33:37,0.0
2803,-1271,-3776,206,-913,-116,2024-01-24 15:33:37,0.0
3179,-1448,-4337,-54,-540,-262,2024-01-24 15:33:37,0.0
2453,-1289,-3951,-118,-321,-171,2024-01-24 15:33:37,0.0
2506,-1691,-4219,-122,-302,-66,2024-01-24 15:33:37,0.0
2364,-1521,-4231,-31,-194,-101,2024-01-24 15:33:37,0.0
2187,-1436,-3876,6,-218,-69,2024-01-24 15:33:37,0.0
2423,-1293,-4365,91,-92,-16,2024-01-24 15:33:38,0.0
2697,-1547,-4517,42,32,65,2024-01-24 15:33:38,0.0
2985,-1658,-5279,-82,635,83,2024-01-24 15:33:38,0.0
3117,-1720,-4723,-111,860,89,2024-01-24 15:33:38,
3479,-1466,-4274,-127,1130,28,2024-01-24 15:33:38,0.0
3445,-1226,-3645,-286,1322,-29,2024-01-24 15:33:38,0.0
3071,-1062,-2837,-340,1348,-53,2024-01-24 15:33:38,0.0
3264,-911,-2367,-384,1122,-70,2024-01-24 15:33:38,0.0
3071,-871,-1855,-346,1360,-223,2024-01-24 15:33:38,0.0
2926,-557,-1423,-177,1189,-121,2024-01-24 15:33:38,0.0
3316,-595,-1336,-252,1365,-214,2024-01-24 15:33:38,0.0
2008,-588,-1727,-239,484,-280,2024-01-24 15:33:38,0.0
3059,-518,-1040,-347,639,-218,2024-01-24 15:33:38,0.0
3875,-430,-1315,-452,875,-251,2024-01-24 15:33:38,0.0
3865,-637,-1221,-467,1024,-160,2024-01-24 15:33:38,0.0
4211,-638,-904,-427,1014,-246,2024-01-24 15:33:38,0.0
3969,-260,-634,-463,1041,-228,2024-01-24 15:33:38,0.0
4082,-401,-446,-536,694,-126,2024-01-24 15:33:39,0.0
4149,-505,-408,-500,546,-107,2024-01-24 15:33:39,0.0
4348,-535,-177,-410,581,-83,2024-01-24 15:33:39,0.0
4165,-218,38,-320,405,-101,2024-01-24 15:33:39,0.0
4229,-372,41,-315,137,-34,2024-01-24 15:33:39,0.0
4292,-337,95,-172,35,-28,2024-01-24 15:33:39,0.0
4278,-296,136,-100,-44,-10,2024-01-24 15:33:39,0.0
4301,-273,160,-52,-147,31,2024-01-24 15:33:39,0.0
4233,-278,110,-27,-226,37,2024-01-24 15:33:39,0.0
4223,-172,-11,-19,-420,52,2024-01-24 15:33:39,0.0
4043,-77,-296,-146,-667,114,2024-01-24 15:33:39,0.0
4138,-352,-603,-237,-908,148,2024-01-24 15:33:39,0.0
4102,-488,-1006,-187,-1153,176,2024-01-24 15:33:39,0.0
3525,-401,-1124,-151,-1376,248,2024-01-24 15:33:39,0.0
3217,-473,-1277,-45,-1723,251,2024-01-24 15:33:39,0.0
3646,-447,-1652,-49,-2082,272,2024-01-24 15:33:39,0.0
3634,-295,-2001,-340,-1795,170,2024-01-24 15:33:39,0.0
3505,-408,-2384,-528,-1905,356,2024-01-24 15:33:39,0.0
3360,-475,-2433,-551,-1537,210,2024-01-24 15:33:40,0.0
2917,-440,-2660,-820,-1619,310,2024-01-24 15:33:40,0.0
3292,-473,-3564,-833,-3818,215,2024-01-24 15:33:40,0.0
2516,-180,-3957,-849,-1857,286,2024-01-24 15:33:40,0.0
1571,-119,-3284,-1011,-1847,280,2024-01-24 15:33:40,0.0
1542,-92,-4003,-644,-1951,331,2024-01-24 15:33:40,0.0
1507,622,-5422,-213,-2126,422,2024-01-24 15:33:40,0.0
187,382,-4708,-321,-1279,100,2024-01-24 15:33:40,0.0
226,676,-5292,-157,-1148,27,2024-01-24 15:33:40,0.0
-360,581,-5082,-35,-423,-32,2024-01-24 15:33:40,0.0
-412,571,-5285,-40,65,-181,2024-01-24 15:33:40,0.0
-377,406,-4990,86,459,-271,2024-01-24 15:33:40,0.0
61,367,-4754,79,1164,-427,2024-01-24 15:33:40,0.0
424,247,-4617,278,1592,-428,2024-01-24 15:33:40,0.0
909,130,-4634,377,1782,-356,2024-01-24 15:33:40,0.0
1387,-43,-4288,588,1807,-243,2024-01-24 15:33:40,0.0
1925,-98,-4239,669,2031,-298,2024-01-24 15:33:40,0.0
2064,-224,-3598,679,2073,-244,2024-01-24 15:33:40,0.0
2637,-363,-3218,706,2435,-258,2024-01-24 15:33:41,0.0
2381,-394,-2736,636,1912,-164,2024-01-24 15:33:41,0.0
3332,-343,-2630,494,1701,-308,2024-01-24 15:33:41,0.0
3255,-365,-2354,368,1625,-309,2024-01-24 15:33:41,0.0
3730,-598,-1885,387,1620,-194,2024-01-24 15:33:41,0.0
3706,-522,-1760,364,1308,-199,2024-01-24 15:33:41,0.0
3760,-378,-1086,230,834,-168,2024-01-24 15:33:41,0.0
4158,-404,-1219,49,1011,-177,2024-01-24 15:33:41,0.0
4116,-82,-1176,-165,1472,-197,2024-01-24 15:33:41,0.0
3545,-424,-448,-251,811,-46,2024-01-24 15:33:41,0.0
4321,-404,-564,-98,748,-105,2024-01-24 15:33:41,0.0
4147,-321,-216,-81,593,-14,2024-01-24 15:33:41,0.0
4205,-593,-357,86,301,42,2024-01-24 15:33:41,0.0
4293,-260,-59,128,287,11,2024-01-24 15:33:41,0.0
4296,-355,29,103,161,6,2024-01-24 15:33:41,0.0
4292,-332,24,72,27,36,2024-01-24 15:33:41,0.0
4270,-330,12,58,-22,39,2024-01-24 15:33:41,0.0
4223,-364,-56,42,-133,30,2024-01-24 15:33:42,0.0
4277,-505,-93,58,-236,13,2024-01-24 15:33:42,0.0
4211,-367,-260,45,-416,37,2024-01-24 15:33:42,0.0
4054,-463,-469,41,-572,63,2024-01-24 15:33:42,0.0
4053,-597,-685,60,-783,93,2024-01-24 15:33:42,0.0
3611,-348,-878,42,-1007,137,2024-01-24 15:33:42,0.0
3344,-707,-1110,46,-1330,237,2024-01-24 15:33:42,0.0
2999,-490,-775,106,-1298,315,2024-01-24 15:33:42,0.0
2208,-512,-739,86,-1394,341,2024-01-24 15:33:42,0.0
3324,-407,-569,198,-1463,236,2024-01-24 15:33:42,0.0
4474,-326,-1548,-70,-1122,-65,2024-01-24 15:33:42,0.0
3343,-332,-1267,301,-454,69,2024-01-24 15:33:42,0.0
4366,-976,-1873,326,-283,42,2024-01-24 15:33:42,0.0
6013,-275,-3546,90,-2428,-259,2024-01-24 15:33:42,0.0
3356,-879,-2290,247,-446,-140,2024-01-24 15:33:42,0.0
4395,-1155,-3562,204,-836,-191,2024-01-24 15:33:42,0.0
3740,-563,-3200,86,-463,-186,2024-01-24 15:33:42,0.0
3776,-1052,-3671,43,-444,-48,2024-01-24 15:33:43,0.0
3518,-848,-3519,37,-61,-154,2024-01-24 15:33:43,0.0
3522,-1088,-3409,86,48,-116,2024-01-24 15:33:43,0.0
3349,-911,-3366,129,-70,-113,2024-01-24 15:33:43,0.0
3437,-1007,-3392,224,-108,-27,2024-01-24 15:33:43,0.0
3471,-925,-3316,285,-379,77,2024-01-24 15:33:43,0.0
4300,-839,-3868,39,-234,151,2024-01-24 15:33:43,0.0
4186,-950,-3825,-113,471,183,2024-01-24 15:33:43,0.0
4380,-1090,-3750,-246,769,143,2024-01-24 15:33:43,0.0
4315,-953,-3198,-327,861,104,2024-01-24 15:33:43,0.0
4265,-861,-2862,-345,1027,116,2024-01-24 15:33:43,0.0
3791,-750,-2055,-468,1131,-53,2024-01-24 15:33:43,0.0
3760,-542,-1773,-447,1269,-75,2024-01-24 15:33:43,0.0
3293,-329,-1387,-473,950,-36,2024-01-24 15:33:43,0.0
3781,-639,-1402,-475,837,-32,2024-01-24 15:33:43,0.0
3566,-821,-814,-246,566,-2,2024-01-24 15:33:43,0.0
3370,-365,-1012,-205,619,-85,2024-01-24 15:33:43,
3380,-476,-888,-309,527,-66,2024-01-24 15:33:43,0.0
3366,-409,-694,-252,668,-159,2024-01-24 15:33:44,0.0
3610,-544,-505,-234,558,-77,2024-01-24 15:33:44,0.0
4009,-425,-765,-171,615,-140,2024-01-24 15:33:44,0.0
4263,-602,-538,-187,920,-235,2024-01-24 15:33:44,0.0
3988,-228,-377,-135,806,-223,2024-01-24 15:33:44,0.0
4051,-231,-117,-183,537,-127,2024-01-24 15:33:44,0.0
4352,-218,-247,-206,331,-43,2024-01-24 15:33:44,0.0
4135,-422,-43,-186,404,-76,2024-01-24 15:33:44,0.0
4352,-340,144,-97,254,-63,2024-01-24 15:33:44,0.0
4175,-160,208,-127,135,-25,2024-01-24 15:33:44,0.0
4447,-241,187,-160,108,-1,2024-01-24 15:33:44,0.0
4181,-305,310,-70,64,-22,2024-01-24 15:33:44,0.0
4421,-165,211,-86,19,-14,2024-01-24 15:33:44,0.0
4237,-285,332,-55,-20,8,2024-01-24 15:33:44,0.0
4349,-167,326,-39,-76,17,2024-01-24 15:33:44,0.0
4191,-137,235,-31,-205,24,2024-01-24 15:33:44,0.0
4244,-180,159,34,-379,61,2024-01-24 15:33:44,0.0
4256,-37,-114,-33,-456,63,2024-01-24 15:33:44,0.0
4086,-75,-248,-167,-677,65,2024-01-24 15:33:45,0.0
4295,-208,-453,-222,-865,88,2024-01-24 15:33:45,0.0
3774,-143,-805,-386,-1092,108,2024-01-24 15:33:45,0.0
3913,-411,-835,-342,-1379,148,2024-01-24 15:33:45,0.0
3551,-386,-1307,-299,-1631,221,2024-01-24 15:33:45,0.0
3298,-416,-1287,-417,-1905,266,2024-01-24 15:33:45,0.0
3525,-414,-1852,-421,-2031,288,2024-01-24 15:33:45,0.0
3679,-473,-2243,-509,-1734,336,2024-01-24 15:33:45,0.0
3319,-342,-2309,-521,-1619,313,2024-01-24 15:33:45,0.0
3051,213,-2259,-820,-889,156,2024-01-24 15:33:45,0.0
4667,-464,-3125,-1152,-2060,282,2024-01-24 15:33:45,0.0
2704,-371,-3244,-1260,-2822,-70,2024-01-24 15:33:45,0.0
1726,387,-4085,-626,-2357,135,2024-01-24 15:33:45,0.0
1423,358,-4472,-633,-1773,168,2024-01-24 15:33:45,0.0
1443,222,-5102,-272,-2357,180,2024-01-24 15:33:45,0.0
657,874,-5034,-57,-962,-113,2024-01-24 15:33:45,0.0
263,848,-4612,-13,-358,-57,2024-01-24 15:33:45,0.0
316,910,-4994,35,-221,-86,2024-01-24 15:33:46,0.0
189,598,-5415,-24,316,-191,2024-01-24 15:33:46,0.0
310,602,-5394,59,899,-303,2024-01-24 15:33:46,0.0
919,343,-5293,283,1548,-417,2024-01-24 15:33:46,0.0
1296,342,-4690,442,1731,-365,2024-01-24 15:33:46,0.0
1784,160,-4288,607,1887,-223,2024-01-24 15:33:46,0.0
2039,95,-3818,641,1816,-160,2024-01-24 15:33:46,0.0
2333,-3,-3328,667,1830,-74,2024-01-24 15:33:46,0.0
2598,-167,-2980,622,1839,-68,2024-01-24 15:33:46,0.0
3016,-377,-2727,594,2064,-99,2024-01-24 15:33:46,0.0
2989,-261,-2366,495,1863,-149,2024-01-24 15:33:46,0.0
3198,-312,-2075,323,1530,-240,2024-01-24 15:33:46,0.0
3554,-384,-1825,331,1532,-128,2024-01-24 15:33:46,0.0
3138,-394,-2042,343,616,-35,2024-01-24 15:33:46,0.0
3879,-408,-1452,247,854,-46,2024-01-24 15:33:46,0.0
3748,-528,-1122,106,1071,-115,2024-01-24 15:33:46,0.0
4051,-372,-1047,202,678,-113,2024-01-24 15:33:46,0.0
4340,-382,-889,67,770,-123,2024-01-24 15:33:46,0.0
3931,-232,-843,70,739,-64,2024-01-24 15:33:47,0.0
4283,-462,-477,27,494,-42,2024-01-24 15:33:47,0.0
4180,-432,-406,109,417,-59,2024-01-24 15:33:47,0.0
4322,-307,-357,138,287,-20,2024-01-24 15:33:47,0.0
4340,-314,-203,84,111,-22,2024-01-24 15:33:47,0.0
4282,-360,-187,87,162,15,2024-01-24 15:33:47,0.0
4449,-290,0,62,106,-9,2024-01-24 15:33:47,0.0
4331,-210,-81,-33,193,-33,2024-01-24 15:33:47,0.0
4352,-332,97,-84,39,-6,2024-01-24 15:33:47,0.0
4412,-288,16,-108,119,-23,2024-01-24 15:33:47,0.0
4466,-378,162,-80,13,7,2024-01-24 15:33:47,0.0
4315,-275,94,-63,42,-26,2024-01-24 15:33:47,0.0
4363,-285,127,-40,-51,-10,2024-01-24 15:33:47,0.0
4161,-381,23,-42,-121,13,2024-01-24 15:33:47,0.0
4254,-315,-162,-86,-250,-7,2024-01-24 15:33:47,0.0
4177,-435,-172,-32,-291,17,2024-01-24 15:33:47,0.0
4043,-397,-184,47,-493,88,2024-01-24 15:33:48,0.0
4107,-478,-475,104,-767,94,2024-01-24 15:33:48,0.0
3706,-239,-741,148,-1150,197,2024-01-24 15:33:48,0.0
3444,-397,-996,128,-1299,255,2024-01-24 15:33:48,0.0
3333,-204,-1169,19,-1783,379,2024-01-24 15:33:48,0.0
3255,-702,-1056,158,-1713,414,2024-01-24 15:33:48,0.0
3449,-575,-1419,107,-1418,196,2024-01-24 15:33:48,0.0
3288,-348,-1188,142,-1280,111,2024-01-24 15:33:48,0.0
3309,-635,-1075,339,-391,139,2024-01-24 15:33:48,0.0
4510,-1762,-2262,648,313,69,2024-01-24 15:33:48,0.0
3324,-202,-2200,740,-1332,-127,2024-01-24 15:33:48,0.0
3495,-459,-2208,249,-779,72,2024-01-24 15:33:48,0.0
4348,-1224,-3520,200,-626,-117,2024-01-24 15:33:48,0.0
3284,-1056,-2771,143,-484,-70,2024-01-24 15:33:48,0.0
3571,-1389,-3394,-90,-61,-133,2024-01-24 15:33:48,0.0
3247,-1136,-3416,-172,-200,-110,2024-01-24 15:33:48,0.0
3776,-1173,-3415,-154,-124,-71,2024-01-24 15:33:48,0.0
3406,-1194,-3651,-195,-147,-24,2024-01-24 15:33:48,0.0
3515,-1182,-3481,-101,-314,67,2024-01-24 15:33:49,0.0
3404,-1287,-3423,7,-97,43,2024-01-24 15:33:49,0.0
3804,-1042,-4238,23,124,52,2024-01-24 15:33:49,0.0
3877,-1230,-4154,-92,337,71,2024-01-24 15:33:49,0.0
4011,-1168,-3904,-78,473,84,2024-01-24 15:33:49,0.0
4281,-1203,-3713,-93,598,90,2024-01-24 15:33:49,0.0
4151,-1149,-3347,-195,770,44,2024-01-24 15:33:49,0.0
3980,-830,-2700,-266,977,-10,2024-01-24 15:33:49,0.0
3695,-853,-2148,-461,1060,-46,2024-01-24 15:33:49,0.0
3470,-753,-1719,-354,1252,-28,2024-01-24 15:33:49,0.0
3446,-504,-1420,-366,1070,-55,2024-01-24 15:33:49,0.0
3626,-795,-1235,-331,1047,-156,2024-01-24 15:33:49,
