acceleration_x,acceleration_y,acceleration_z,gyroscope_x,gyroscope_y,gyroscope_z,timestamp,label
4241,-130,1137,-36,956,7,2024-01-24 14:46:41,0.0
4197,-378,1296,-37,609,1,2024-01-24 14:46:42,0.0
3949,-491,1696,-14,512,-62,2024-01-24 14:46:42,0.0
3978,-508,1552,7,592,41,2024-01-24 14:46:42,0.0
4027,-433,1367,-22,276,1,2024-01-24 14:46:42,0.0
4100,-211,1410,-58,329,-31,2024-01-24 14:46:42,0.0
3915,-250,1441,-38,-27,-57,2024-01-24 14:46:42,0.0
4186,-91,1497,-46,-239,-52,2024-01-24 14:46:42,0.0
3876,-294,1680,-53,8,-31,2024-01-24 14:46:42,0.0
4091,-218,1417,-41,-183,-13,2024-01-24 14:46:42,0.0
4102,-172,1450,-46,-150,15,2024-01-24 14:46:42,0.0
4065,-217,1498,-103,-278,1,2024-01-24 14:46:42,0.0
4185,-283,1663,-62,-142,1,2024-01-24 14:46:42,0.0
4289,-244,1136,-71,-194,0,2024-01-24 14:46:42,0.0
4183,-234,925,-20,-47,40,2024-01-24 14:46:42,0.0
4289,-213,915,-7,21,23,2024-01-24 14:46:42,0.0
4244,-255,1169,-38,4,29,2024-01-24 14:46:42,0.0
4201,-196,1244,-12,175,43,2024-01-24 14:46:42,0.0
4274,-250,1276,-9,431,42,2024-01-24 14:46:42,0.0
3723,-288,1665,-26,34,18,2024-01-24 14:46:43,0.0
4233,-324,1566,-19,-46,5,2024-01-24 14:46:43,0.0
3949,-257,1574,-31,-26,-2,2024-01-24 14:46:43,0.0
4148,-237,1548,-30,-19,16,2024-01-24 14:46:43,0.0
3949,-277,1485,-38,-157,-5,2024-01-24 14:46:43,0.0
4085,-216,1362,-61,-223,13,2024-01-24 14:46:43,0.0
4071,-165,1320,-77,-414,26,2024-01-24 14:46:43,0.0
4019,-221,1310,-70,-418,40,2024-01-24 14:46:43,0.0
4122,-301,1186,-45,-388,16,2024-01-24 14:46:43,0.0
4197,-240,949,-55,-648,11,2024-01-24 14:46:43,0.0
4032,-393,1085,-68,-556,-19,2024-01-24 14:46:43,0.0
4368,-255,866,-21,-758,-50,2024-01-24 14:46:43,0.0
3926,-350,686,-21,-1094,-21,2024-01-24 14:46:43,0.0
4499,-282,279,4,-1058,23,2024-01-24 14:46:43,0.0
4328,-208,114,-66,-1298,39,2024-01-24 14:46:43,0.0
4816,-217,2,-157,-1163,10,2024-01-24 14:46:43,0.0
5109,-261,-534,-72,-1296,117,2024-01-24 14:46:43,0.0
5003,-321,-1245,-92,-1051,82,2024-01-24 14:46:44,0.0
4947,-223,-1662,-33,-594,93,2024-01-24 14:46:44,0.0
4616,-506,-1763,-75,-633,31,2024-01-24 14:46:44,0.0
4442,-196,-1493,-88,-31,-38,2024-01-24 14:46:44,0.0
4568,-392,-1459,-131,42,8,2024-01-24 14:46:44,0.0
4399,-266,-1313,-96,374,-54,2024-01-24 14:46:44,0.0
4390,-217,-1120,-69,582,-28,2024-01-24 14:46:44,0.0
4207,-197,-981,-84,855,-37,2024-01-24 14:46:44,0.0
3804,-214,-748,-29,842,42,2024-01-24 14:46:44,0.0
3852,-236,-710,-42,698,36,2024-01-24 14:46:44,0.0
3515,-56,-537,-70,635,33,2024-01-24 14:46:44,0.0
3434,-307,-482,-115,440,22,2024-01-24 14:46:44,0.0
3717,-306,-353,-146,450,-15,2024-01-24 14:46:44,0.0
3810,-129,-288,-122,511,-74,2024-01-24 14:46:44,0.0
4059,-250,-21,-157,353,10,2024-01-24 14:46:44,0.0
4104,-138,-255,-116,152,-26,2024-01-24 14:46:44,0.0
4415,-123,-95,-173,11,-68,2024-01-24 14:46:44,0.0
4380,-274,2,-108,13,-88,2024-01-24 14:46:44,0.0
4365,-97,38,-99,90,-93,2024-01-24 14:46:45,0.0
4304,-176,33,-61,71,1,2024-01-24 14:46:45,0.0
4323,-64,62,-118,63,3,2024-01-24 14:46:45,0.0
4260,-145,70,-142,-25,6,2024-01-24 14:46:45,0.0
4388,-288,171,-83,-8,20,2024-01-24 14:46:45,0.0
4288,-211,143,43,-36,27,2024-01-24 14:46:45,0.0
4382,-173,139,86,-30,25,2024-01-24 14:46:45,0.0
4352,-90,168,53,-63,23,2024-01-24 14:46:45,0.0
4314,-212,176,49,-12,36,2024-01-24 14:46:45,0.0
4354,-119,207,16,-23,46,2024-01-24 14:46:45,0.0
4375,-163,209,-27,-58,39,2024-01-24 14:46:45,0.0
4343,-203,170,-12,-41,46,2024-01-24 14:46:45,0.0
4348,-230,199,12,-31,49,2024-01-24 14:46:45,0.0
4402,-194,110,34,16,68,2024-01-24 14:46:45,0.0
4372,-238,132,60,20,50,2024-01-24 14:46:45,0.0
4347,-234,103,82,30,61,2024-01-24 14:46:45,0.0
4478,-300,2,115,105,60,2024-01-24 14:46:45,0.0
4175,-265,153,135,92,80,2024-01-24 14:46:46,0.0
3887,-244,212,77,-346,64,2024-01-24 14:46:46,0.0
4436,-115,-66,1,-341,70,2024-01-24 14:46:46,0.0
3845,-256,-101,-38,-303,61,2024-01-24 14:46:46,0.0
4037,-306,-74,-66,-371,22,2024-01-24 14:46:46,0.0
3756,-199,-19,-141,-382,24,2024-01-24 14:46:46,0.0
4119,-465,129,30,-439,133,2024-01-24 14:46:46,0.0
4456,-53,-46,-37,-208,41,2024-01-24 14:46:46,0.0
4261,-621,-104,-36,-241,105,2024-01-24 14:46:46,0.0
4406,-319,-223,-32,-295,89,2024-01-24 14:46:46,0.0
4040,-459,-421,-147,-42,-74,2024-01-24 14:46:46,0.0
3755,-394,-208,-95,-236,-25,2024-01-24 14:46:46,0.0
4048,-257,-496,-116,-43,-25,2024-01-24 14:46:46,0.0
3318,-272,-405,-119,-274,-81,2024-01-24 14:46:46,0.0
4658,-773,-670,61,-155,-52,2024-01-24 14:46:46,0.0
4668,-7,-659,107,-238,40,2024-01-24 14:46:46,0.0
5338,-650,-905,98,448,40,2024-01-24 14:46:46,0.0
4722,-249,-575,99,629,204,2024-01-24 14:46:46,0.0
4940,-584,-66,115,956,119,2024-01-24 14:46:47,0.0
5380,-314,306,151,913,-91,2024-01-24 14:46:47,0.0
5421,-98,477,-67,1008,-195,2024-01-24 14:46:47,0.0
3926,-119,1103,-118,1198,-112,2024-01-24 14:46:47,0.0
3945,-390,1432,-200,725,-117,2024-01-24 14:46:47,0.0
4308,-535,1444,-70,761,-39,2024-01-24 14:46:47,0.0
3949,-379,1378,-13,744,-50,2024-01-24 14:46:47,0.0
3949,-275,1270,-32,261,17,2024-01-24 14:46:47,0.0
4082,-212,1380,39,294,22,2024-01-24 14:46:47,0.0
4013,-207,1535,-84,96,-44,2024-01-24 14:46:47,0.0
4006,-243,1618,40,153,4,2024-01-24 14:46:47,
3848,-332,1777,-85,75,-44,2024-01-24 14:46:47,0.0
4005,-300,1721,-55,-127,-52,2024-01-24 14:46:47,0.0
3936,-207,1598,-50,-125,-67,2024-01-24 14:46:47,0.0
3890,-180,1632,-21,-372,-36,2024-01-24 14:46:47,0.0
4383,-136,1475,-87,-82,-23,2024-01-24 14:46:47,0.0
3966,-179,1493,-52,-86,50,2024-01-24 14:46:47,0.0
4093,-111,1323,-13,-220,54,2024-01-24 14:46:48,0.0
4269,-280,1301,-18,-127,33,2024-01-24 14:46:48,0.0
4024,-309,1400,-49,-163,11,2024-01-24 14:46:48,0.0
4244,-330,1280,-55,-68,16,2024-01-24 14:46:48,0.0
4049,-227,1351,-39,-54,6,2024-01-24 14:46:48,0.0
4161,-183,1361,-31,-37,-10,2024-01-24 14:46:48,0.0
4085,-207,1364,-31,-88,8,2024-01-24 14:46:48,0.0
4189,-150,1330,-46,-12,8,2024-01-24 14:46:48,0.0
4084,-213,1327,-46,-33,26,2024-01-24 14:46:48,0.0
4159,-185,1292,-57,-19,46,2024-01-24 14:46:48,0.0
4122,-279,1264,-54,-14,37,2024-01-24 14:46:48,0.0
4149,-267,1320,-43,8,28,2024-01-24 14:46:48,0.0
4114,-289,1378,-44,-13,13,2024-01-24 14:46:48,0.0
4132,-255,1378,-31,-47,19,2024-01-24 14:46:48,0.0
4112,-226,1328,-38,-52,20,2024-01-24 14:46:48,0.0
4143,-227,1310,-39,-75,29,2024-01-24 14:46:48,0.0
4149,-233,1349,-40,-95,29,2024-01-24 14:46:48,0.0
4125,-262,1330,-38,-107,9,2024-01-24 14:46:48,0.0
4144,-297,1306,-40,-226,2,2024-01-24 14:46:49,0.0
4045,-255,1295,-48,-212,2,2024-01-24 14:46:49,0.0
4057,-291,1292,-32,-316,3,2024-01-24 14:46:49,0.0
4166,-238,1131,-46,-402,-8,2024-01-24 14:46:49,0.0
4106,-239,1061,-64,-635,-14,2024-01-24 14:46:49,0.0
4217,-133,844,-75,-626,-6,2024-01-24 14:46:49,0.0
4237,-288,692,-106,-871,-45,2024-01-24 14:46:49,0.0
4165,-213,580,-53,-795,-44,2024-01-24 14:46:49,0.0
4455,-182,318,-53,-997,-1,2024-01-24 14:46:49,0.0
4106,-199,340,-87,-1137,64,2024-01-24 14:46:49,0.0
4698,-134,-94,-151,-1305,37,2024-01-24 14:46:49,0.0
4682,-211,-332,-225,-1577,33,2024-01-24 14:46:49,0.0
5731,-560,-1539,5,-1581,27,2024-01-24 14:46:49,0.0
4953,-117,-1589,2,-601,28,2024-01-24 14:46:49,0.0
4725,-385,-1695,43,-199,64,2024-01-24 14:46:49,0.0
4385,-242,-1651,37,-145,75,2024-01-24 14:46:49,0.0
4384,-228,-1617,1,128,9,2024-01-24 14:46:49,0.0
4437,-272,-1445,-93,283,51,2024-01-24 14:46:50,0.0
4078,-313,-1241,-96,594,-5,2024-01-24 14:46:50,0.0
3872,-185,-1012,-110,691,26,2024-01-24 14:46:50,0.0
3986,-400,-1002,-90,545,68,2024-01-24 14:46:50,0.0
3817,-187,-857,-58,631,76,2024-01-24 14:46:50,0.0
3813,-294,-755,-97,602,51,2024-01-24 14:46:50,0.0
3699,-578,-578,-49,474,-59,2024-01-24 14:46:50,0.0
3826,-274,-723,30,505,-81,2024-01-24 14:46:50,0.0
3834,-138,-478,-25,542,-52,2024-01-24 14:46:50,0.0
4129,-353,-318,-34,496,-19,2024-01-24 14:46:50,0.0
3991,-166,-231,-51,505,-74,2024-01-24 14:46:50,0.0
3951,-469,-83,29,331,6,2024-01-24 14:46:50,0.0
4274,-303,-125,195,133,39,2024-01-24 14:46:50,0.0
4455,-133,28,189,131,41,2024-01-24 14:46:50,0.0
4229,131,199,-55,46,-8,2024-01-24 14:46:50,0.0
4324,-156,127,-210,-13,-52,2024-01-24 14:46:50,0.0
4474,-192,60,-196,54,-27,2024-01-24 14:46:50,0.0
4274,-146,184,-193,80,-25,2024-01-24 14:46:50,0.0
4336,-266,255,-107,-34,1,2024-01-24 14:46:51,0.0
4289,-155,274,-77,-28,-10,2024-01-24 14:46:51,0.0
4405,-150,218,-41,-38,20,2024-01-24 14:46:51,0.0
4315,-227,198,-43,-30,33,2024-01-24 14:46:51,0.0
4320,-232,231,-30,-13,31,2024-01-24 14:46:51,0.0
4344,-242,214,-20,-73,46,2024-01-24 14:46:51,0.0
4350,-211,294,-6,-66,32,2024-01-24 14:46:51,0.0
4354,-193,232,-42,-25,29,2024-01-24 14:46:51,0.0
4374,-248,266,-52,-11,24,2024-01-24 14:46:51,0.0
4305,-258,257,-52,-4,26,2024-01-24 14:46:51,0.0
4334,-292,266,-37,21,30,2024-01-24 14:46:51,0.0
4349,-324,253,-14,6,32,2024-01-24 14:46:51,0.0
4280,-261,202,-20,-47,24,2024-01-24 14:46:51,0.0
4371,-285,198,-12,-47,21,2024-01-24 14:46:51,0.0
4310,-229,248,-41,-55,14,2024-01-24 14:46:51,0.0
4376,-267,249,-56,-89,20,2024-01-24 14:46:51,0.0
4312,-262,236,-80,-44,3,2024-01-24 14:46:51,0.0
4400,-232,264,-100,-21,3,2024-01-24 14:46:52,0.0
4318,-268,323,-97,4,-2,2024-01-24 14:46:52,0.0
4315,-274,266,-64,20,1,2024-01-24 14:46:52,0.0
4381,-244,167,-38,12,6,2024-01-24 14:46:52,0.0
4354,-279,69,20,4,43,2024-01-24 14:46:52,0.0
4237,-261,72,34,14,71,2024-01-24 14:46:52,0.0
4138,-266,128,-6,-207,61,2024-01-24 14:46:52,0.0
4194,-337,54,-2,-286,35,2024-01-24 14:46:52,0.0
4242,-233,-138,25,-458,15,2024-01-24 14:46:52,0.0
3761,-190,-135,-37,-563,-4,2024-01-24 14:46:52,0.0
4231,-556,-332,59,-933,40,2024-01-24 14:46:52,0.0
4088,-131,-275,-44,-872,-27,2024-01-24 14:46:52,0.0
3818,-207,-477,-27,-910,100,2024-01-24 14:46:52,0.0
4409,-280,-736,-182,-1215,151,2024-01-24 14:46:52,0.0
4269,-586,-869,-63,-672,228,2024-01-24 14:46:52,0.0
4272,-429,-991,-73,-836,147,2024-01-24 14:46:52,0.0
4360,-543,-1284,-27,-500,161,2024-01-24 14:46:53,0.0
4046,-501,-1378,-28,-342,103,2024-01-24 14:46:53,0.0
4340,-437,-1531,-105,-30,82,2024-01-24 14:46:53,0.0
3798,-580,-1246,-129,68,66,2024-01-24 14:46:53,0.0
3994,-366,-1428,-84,211,83,2024-01-24 14:46:53,0.0
3837,-451,-1409,-89,440,31,2024-01-24 14:46:53,0.0
4018,-541,-1329,-36,422,-31,2024-01-24 14:46:53,0.0
3802,-484,-1347,45,408,-39,2024-01-24 14:46:53,
4295,-600,-1390,36,350,-29,2024-01-24 14:46:53,0.0
4388,-528,-1376,84,233,5,2024-01-24 14:46:53,0.0
4647,-558,-1316,75,412,-172,2024-01-24 14:46:53,0.0
4665,-225,-915,96,782,-293,2024-01-24 14:46:53,0.0
5032,-359,-514,-51,906,-241,2024-01-24 14:46:53,0.0
5063,-288,-321,-75,1207,-50,2024-01-24 14:46:53,0.0
4410,-334,597,-55,1030,-31,2024-01-24 14:46:53,0.0
4632,-199,649,-96,824,-188,2024-01-24 14:46:53,0.0
4272,-352,1026,-15,893,-142,2024-01-24 14:46:53,0.0
4130,-449,954,-22,612,-159,2024-01-24 14:46:53,0.0
4076,-365,989,-62,619,-28,2024-01-24 14:46:53,0.0
4167,74,953,-43,390,41,2024-01-24 14:46:53,0.0
4101,174,1066,3,214,-23,2024-01-24 14:46:54,0.0
4196,-42,1155,-42,-28,3,2024-01-24 14:46:54,0.0
4009,-340,1289,-79,-136,-13,2024-01-24 14:46:54,0.0
4115,-217,1307,-56,-175,85,2024-01-24 14:46:54,0.0
4146,-38,1107,-29,-289,79,2024-01-24 14:46:54,0.0
4308,-114,983,-53,-225,62,2024-01-24 14:46:54,0.0
4260,-299,843,-78,-175,19,2024-01-24 14:46:54,0.0
4311,-326,795,-51,-173,59,2024-01-24 14:46:54,0.0
4308,-212,776,-53,-163,44,2024-01-24 14:46:54,0.0
4249,-181,847,-34,-138,33,2024-01-24 14:46:54,0.0
4272,-252,794,-28,-100,23,2024-01-24 14:46:54,0.0
4255,-279,779,-14,-76,39,2024-01-24 14:46:54,0.0
4294,-233,742,-26,-113,55,2024-01-24 14:46:54,0.0
4243,-190,784,-29,-71,30,2024-01-24 14:46:54,0.0
4281,-218,749,-26,-63,32,2024-01-24 14:46:54,0.0
4283,-262,764,-38,-81,27,2024-01-24 14:46:54,0.0
4287,-285,717,-36,-67,16,2024-01-24 14:46:54,0.0
4291,-276,688,-41,-59,20,2024-01-24 14:46:55,0.0
4276,-266,744,-35,-55,29,2024-01-24 14:46:55,0.0
4270,-257,663,-54,-37,18,2024-01-24 14:46:55,0.0
4287,-270,628,-49,-56,24,2024-01-24 14:46:55,0.0
4257,-266,666,-55,-57,17,2024-01-24 14:46:55,0.0
4289,-287,681,-45,-80,28,2024-01-24 14:46:55,0.0
4257,-316,688,-35,-106,26,2024-01-24 14:46:55,0.0
4259,-319,672,-19,-129,38,2024-01-24 14:46:55,0.0
4299,-255,602,-20,-265,40,2024-01-24 14:46:55,0.0
4030,-364,694,-11,-432,45,2024-01-24 14:46:55,0.0
4373,-208,505,-10,-600,76,2024-01-24 14:46:55,0.0
4057,-261,470,-94,-717,55,2024-01-24 14:46:55,0.0
4501,-400,32,-69,-688,70,2024-01-24 14:46:55,0.0
4022,-359,55,-114,-1045,69,2024-01-24 14:46:55,0.0
4229,-382,-226,-133,-1026,30,2024-01-24 14:46:55,0.0
4542,-306,-409,-166,-1325,23,2024-01-24 14:46:55,0.0
4567,-353,-772,-234,-1435,31,2024-01-24 14:46:55,0.0
5138,-599,-1445,-204,-1537,47,2024-01-24 14:46:55,0.0
4733,-418,-2135,-18,-851,52,2024-01-24 14:46:56,0.0
4696,-358,-2320,-4,-209,33,2024-01-24 14:46:56,0.0
4244,-444,-1997,34,213,15,2024-01-24 14:46:56,0.0
4354,-359,-1979,17,468,-2,2024-01-24 14:46:56,0.0
4307,-361,-1712,15,391,18,2024-01-24 14:46:56,0.0
4047,-404,-1408,-15,424,-13,2024-01-24 14:46:56,0.0
4335,-409,-1306,47,609,-73,2024-01-24 14:46:56,0.0
4028,-378,-1018,66,812,-100,2024-01-24 14:46:56,0.0
3852,-386,-960,59,618,-77,2024-01-24 14:46:56,0.0
4084,-469,-896,112,690,-18,2024-01-24 14:46:56,0.0
3787,-323,-769,97,690,-35,2024-01-24 14:46:56,0.0
3904,-376,-659,8,539,-27,2024-01-24 14:46:56,0.0
3756,-296,-468,-21,595,-25,2024-01-24 14:46:56,0.0
3741,-334,-387,-74,425,-52,2024-01-24 14:46:56,0.0
3869,-306,-219,-90,422,-30,2024-01-24 14:46:56,0.0
4132,-351,41,-42,536,-30,2024-01-24 14:46:56,0.0
3734,-243,61,-6,139,-171,2024-01-24 14:46:56,0.0
4530,149,-433,-156,-192,-87,2024-01-24 14:46:57,0.0
4461,-586,21,7,247,43,2024-01-24 14:46:57,0.0
4237,41,400,-49,319,29,2024-01-24 14:46:57,0.0
4339,-348,380,-155,126,-10,2024-01-24 14:46:57,0.0
4350,-313,151,17,68,45,2024-01-24 14:46:57,0.0
4009,-378,323,-48,106,-28,2024-01-24 14:46:57,0.0
4342,14,300,-108,-4,-30,2024-01-24 14:46:57,0.0
4372,-203,314,-186,-4,-31,2024-01-24 14:46:57,0.0
4297,-337,299,-141,-30,-48,2024-01-24 14:46:57,0.0
4346,-234,287,-69,-54,-1,2024-01-24 14:46:57,0.0
4350,-181,226,-73,-115,-11,2024-01-24 14:46:57,0.0
4322,-54,147,-118,-50,9,2024-01-24 14:46:57,0.0
4344,-188,247,-143,-79,12,2024-01-24 14:46:57,0.0
4307,-209,248,-108,-98,29,2024-01-24 14:46:57,0.0
4404,-250,265,-83,-148,14,2024-01-24 14:46:57,0.0
4285,-265,288,-32,-156,18,2024-01-24 14:46:57,0.0
4397,-332,124,43,-237,16,2024-01-24 14:46:57,0.0
4393,-200,91,56,-158,36,2024-01-24 14:46:57,0.0
4366,-187,73,14,-142,34,2024-01-24 14:46:58,0.0
4320,-176,112,-51,-86,18,2024-01-24 14:46:58,0.0
4365,-252,100,-39,-86,18,2024-01-24 14:46:58,0.0
4401,-190,45,-39,-44,15,2024-01-24 14:46:58,0.0
4340,-181,111,-59,-36,16,2024-01-24 14:46:58,0.0
4346,-196,67,-81,-36,17,2024-01-24 14:46:58,0.0
4348,-188,66,-72,-34,27,2024-01-24 14:46:58,0.0
4321,-214,79,-63,-37,21,2024-01-24 14:46:58,0.0
4379,-216,-90,-45,-59,30,2024-01-24 14:46:58,0.0
4318,-223,-200,-18,-129,50,2024-01-24 14:46:58,0.0
4244,-215,-107,-8,-186,34,2024-01-24 14:46:58,0.0
4241,-262,-267,-13,-299,22,2024-01-24 14:46:58,0.0
4295,-313,-374,16,-445,46,2024-01-24 14:46:58,0.0
4151,-132,-478,-55,-496,44,2024-01-24 14:46:58,0.0
4124,-246,-522,-103,-608,66,2024-01-24 14:46:58,0.0
4243,-432,-631,-46,-577,113,2024-01-24 14:46:58,0.0
3909,-381,-716,15,-578,58,2024-01-24 14:46:58,0.0
3897,-138,-918,12,-723,25,2024-01-24 14:46:59,
3903,-370,-912,32,-668,32,2024-01-24 14:46:59,0.0
3898,-194,-1048,81,-531,49,2024-01-24 14:46:59,0.0
3737,-289,-994,21,-548,142,2024-01-24 14:46:59,0.0
4025,-518,-1082,12,-453,89,2024-01-24 14:46:59,0.0
3869,-383,-1255,82,-363,65,2024-01-24 14:47:01,0.0
3794,-344,-1249,-7,-356,82,2024-01-24 14:47:01,0.0
4187,-372,-1541,-85,102,19,2024-01-24 14:47:01,0.0
4387,-834,-1457,-38,120,43,2024-01-24 14:47:01,0.0
4029,-414,-1375,40,249,83,2024-01-24 14:47:01,0.0
4353,-532,-1634,17,412,-38,2024-01-24 14:47:01,0.0
4415,-509,-1427,31,368,10,2024-01-24 14:47:01,0.0
4598,-394,-1548,27,719,-31,2024-01-24 14:47:01,0.0
4904,-564,-1380,-12,616,-141,2024-01-24 14:47:01,0.0
4280,-312,688,-37,-66,30,2024-01-24 14:47:01,0.0
4266,-327,662,-39,-125,27,2024-01-24 14:47:01,0.0
4284,-325,593,-39,-144,45,2024-01-24 14:47:01,0.0
4322,-340,589,-44,-92,21,2024-01-24 14:47:01,0.0
4334,-413,555,-50,-142,27,2024-01-24 14:47:01,0.0
4256,-389,483,-40,-92,15,2024-01-24 14:47:01,0.0
4218,-332,484,-44,-309,2,2024-01-24 14:47:01,0.0
4200,-386,586,-16,-341,-6,2024-01-24 14:47:01,0.0
4150,-302,468,-30,-800,-1,2024-01-24 14:47:01,0.0
4093,-318,488,-72,-1151,-6,2024-01-24 14:47:01,0.0
4195,-230,169,-106,-1407,63,2024-01-24 14:47:02,0.0
4280,-292,-22,-173,-1623,89,2024-01-24 14:47:02,0.0
5192,-410,-786,-176,-1660,81,2024-01-24 14:47:02,0.0
5260,-503,-1755,-139,-1309,61,2024-01-24 14:47:02,0.0
4829,-557,-2322,-69,-728,66,2024-01-24 14:47:02,0.0
4423,-415,-2309,-89,-320,85,2024-01-24 14:47:02,0.0
4481,-527,-2011,-77,110,29,2024-01-24 14:47:02,0.0
3933,-369,-1870,-115,-8,-8,2024-01-24 14:47:02,0.0
4444,-392,-1888,-100,563,-19,2024-01-24 14:47:02,0.0
3908,-334,-1405,-179,678,-104,2024-01-24 14:47:02,0.0
3834,-394,-1262,-80,657,-74,2024-01-24 14:47:02,0.0
3924,-225,-1276,-12,632,-74,2024-01-24 14:47:02,0.0
3787,-375,-990,11,702,-77,2024-01-24 14:47:02,0.0
3841,-255,-930,43,652,-80,2024-01-24 14:47:02,0.0
3750,-327,-680,58,584,-31,2024-01-24 14:47:02,0.0
3843,-178,-628,-19,695,-87,2024-01-24 14:47:02,0.0
3721,-323,-514,-14,508,-16,2024-01-24 14:47:02,0.0
4161,-202,-444,-28,489,9,2024-01-24 14:47:02,0.0
3902,-356,-204,-80,518,-6,2024-01-24 14:47:03,0.0
4041,-216,-9,-55,307,-51,2024-01-24 14:47:03,0.0
4256,-213,-47,11,219,-35,2024-01-24 14:47:03,0.0
4260,-131,-218,12,-92,6,2024-01-24 14:47:03,0.0
4535,-149,-93,-66,197,49,2024-01-24 14:47:03,0.0
4240,-144,196,-149,186,30,2024-01-24 14:47:03,0.0
4372,-209,164,-144,71,1,2024-01-24 14:47:03,0.0
4315,-257,159,-91,0,12,2024-01-24 14:47:03,0.0
4344,-292,160,-34,-72,-12,2024-01-24 14:47:03,0.0
4314,-85,94,-19,-62,10,2024-01-24 14:47:03,0.0
4284,-179,20,-99,-83,-9,2024-01-24 14:47:03,0.0
4363,-206,71,-147,-101,0,2024-01-24 14:47:03,0.0
4362,-300,77,-100,-102,23,2024-01-24 14:47:03,0.0
4324,-226,53,-71,-56,12,2024-01-24 14:47:03,0.0
4374,-277,172,-48,-87,17,2024-01-24 14:47:03,0.0
4384,-241,62,-47,-21,7,2024-01-24 14:47:03,0.0
4343,-181,132,-56,-30,6,2024-01-24 14:47:03,0.0
4332,-245,97,-63,-49,14,2024-01-24 14:47:04,0.0
4350,-212,122,-76,-74,3,2024-01-24 14:47:04,0.0
4348,-242,67,-51,-78,15,2024-01-24 14:47:04,0.0
4337,-241,74,-34,-46,16,2024-01-24 14:47:04,0.0
4355,-228,54,-31,-53,18,2024-01-24 14:47:04,0.0
4322,-221,-9,-40,-86,22,2024-01-24 14:47:04,0.0
4357,-234,-3,-63,-99,29,2024-01-24 14:47:04,0.0
4344,-202,-42,-75,-106,25,2024-01-24 14:47:04,0.0
4306,-283,-86,-61,-187,38,2024-01-24 14:47:04,0.0
4255,-224,-161,-58,-209,33,2024-01-24 14:47:04,0.0
4195,-207,-361,-60,-413,29,2024-01-24 14:47:04,0.0
4135,-177,-528,-30,-618,57,2024-01-24 14:47:04,0.0
4017,-236,-353,-40,-661,58,2024-01-24 14:47:04,0.0
4292,-190,-576,-83,-765,55,2024-01-24 14:47:04,0.0
4098,-448,-828,-7,-749,82,2024-01-24 14:47:04,0.0
3775,-313,-985,78,-877,11,2024-01-24 14:47:04,0.0
4153,-184,-953,65,-755,20,2024-01-24 14:47:04,0.0
4263,-188,-1106,-15,-510,7,2024-01-24 14:47:04,0.0
4098,-341,-1037,-31,-374,70,2024-01-24 14:47:05,0.0
4311,-329,-1467,-146,-339,7,2024-01-24 14:47:05,0.0
4001,-534,-1322,-61,-200,73,2024-01-24 14:47:05,0.0
4037,-293,-1553,-53,-4,-23,2024-01-24 14:47:05,0.0
3572,-385,-1408,57,-220,147,2024-01-24 14:47:05,0.0
4038,-276,-1659,-27,-240,94,2024-01-24 14:47:07,0.0
3670,-147,-1583,-126,26,70,2024-01-24 14:47:07,0.0
4067,-636,-1610,-144,378,9,2024-01-24 14:47:07,0.0
3555,-247,-1288,-79,181,26,2024-01-24 14:47:07,0.0
3941,-564,-1530,-99,478,-31,2024-01-24 14:47:07,0.0
4243,-575,-1303,21,356,2,2024-01-24 14:47:07,0.0
4105,-324,-1390,-51,587,-25,2024-01-24 14:47:07,0.0
4698,-566,-1272,15,779,60,2024-01-24 14:47:07,0.0
5121,-510,-1274,78,613,-42,2024-01-24 14:47:07,0.0
4225,-271,297,-113,-924,34,2024-01-24 14:47:07,0.0
4242,-334,190,-109,-1445,20,2024-01-24 14:47:07,0.0
4376,-301,-113,-50,-1664,90,2024-01-24 14:47:07,0.0
4886,-260,-655,-95,-1592,54,2024-01-24 14:47:08,0.0
5196,-514,-1617,-131,-1587,63,2024-01-24 14:47:08,0.0
4748,-481,-2243,65,-719,40,2024-01-24 14:47:08,0.0
4447,-431,-2320,59,-677,68,2024-01-24 14:47:08,0.0
4394,-428,-2200,66,71,50,2024-01-24 14:47:08,0.0
4269,-367,-2061,-64,60,31,2024-01-24 14:47:08,0.0
4202,-384,-1872,-106,494,-17,2024-01-24 14:47:08,
4089,-452,-1440,-66,583,-30,2024-01-24 14:47:08,0.0
3978,-303,-1406,-42,694,-102,2024-01-24 14:47:08,0.0
3960,-329,-1302,-36,695,-102,2024-01-24 14:47:08,0.0
3932,-331,-1055,14,677,-48,2024-01-24 14:47:08,0.0
3856,-292,-997,8,733,-115,2024-01-24 14:47:08,0.0
3649,-232,-911,9,780,-54,2024-01-24 14:47:08,0.0
3586,-181,-657,-70,674,-77,2024-01-24 14:47:08,0.0
3778,-291,-622,-66,675,-41,2024-01-24 14:47:08,0.0
3853,-236,-344,-102,547,-17,2024-01-24 14:47:08,0.0
4099,-235,-290,-122,552,-66,2024-01-24 14:47:08,0.0
3883,-277,-132,-85,297,-91,2024-01-24 14:47:09,0.0
4352,-177,-155,-46,16,-32,2024-01-24 14:47:09,0.0
4425,-245,-130,-42,79,-34,2024-01-24 14:47:09,0.0
4348,-173,60,-12,64,-14,2024-01-24 14:47:09,0.0
4432,-173,85,-35,147,9,2024-01-24 14:47:09,0.0
4293,-101,102,-54,69,11,2024-01-24 14:47:09,0.0
4325,-148,95,-86,69,11,2024-01-24 14:47:09,0.0
4266,-202,78,-71,-13,34,2024-01-24 14:47:09,0.0
4412,-242,123,-51,-63,33,2024-01-24 14:47:09,0.0
4317,-160,138,-52,-123,22,2024-01-24 14:47:09,0.0
4313,-186,162,-54,-70,25,2024-01-24 14:47:09,0.0
4386,-177,104,-56,-49,16,2024-01-24 14:47:09,0.0
4352,-197,180,-38,-22,18,2024-01-24 14:47:09,0.0
4344,-159,136,-38,-3,12,2024-01-24 14:47:09,0.0
4363,-175,192,-45,-28,1,2024-01-24 14:47:09,0.0
4359,-195,105,-45,-45,10,2024-01-24 14:47:09,0.0
4321,-215,192,-36,-32,7,2024-01-24 14:47:09,0.0
4307,-201,179,-35,-43,20,2024-01-24 14:47:09,0.0
4331,-188,133,-43,-67,10,2024-01-24 14:47:10,0.0
4361,-222,125,-44,-58,14,2024-01-24 14:47:10,0.0
4326,-201,110,-41,-70,16,2024-01-24 14:47:10,0.0
4361,-208,87,-51,-87,19,2024-01-24 14:47:10,0.0
4335,-198,28,-57,-52,17,2024-01-24 14:47:10,0.0
4313,-228,54,-65,-94,26,2024-01-24 14:47:10,0.0
4390,-192,-13,-63,-120,23,2024-01-24 14:47:10,0.0
4196,-212,-93,-58,-176,37,2024-01-24 14:47:10,0.0
4396,-265,-171,-22,-297,63,2024-01-24 14:47:10,0.0
4170,-266,-269,-24,-306,57,2024-01-24 14:47:10,0.0
4413,-268,-269,10,-342,62,2024-01-24 14:47:10,0.0
4250,-289,-266,39,-283,82,2024-01-24 14:47:10,0.0
4261,-153,-303,5,-418,68,2024-01-24 14:47:10,0.0
4182,-252,-476,-46,-430,99,2024-01-24 14:47:10,0.0
4137,-316,-602,-9,-422,59,2024-01-24 14:47:10,0.0
3751,-395,-692,41,-518,68,2024-01-24 14:47:10,0.0
3599,-237,-683,66,-472,9,2024-01-24 14:47:10,0.0
3894,-149,-940,19,-530,89,2024-01-24 14:47:11,0.0
3539,-519,-578,-43,-352,121,2024-01-24 14:47:11,0.0
4180,-637,-1029,55,-637,160,2024-01-24 14:47:11,0.0
3604,-251,-829,-24,-314,81,2024-01-24 14:47:11,0.0
4882,-433,-1358,-49,-299,53,2024-01-24 14:47:11,0.0
4035,-501,-1072,-169,158,-142,2024-01-24 14:47:11,0.0
4151,-497,-1156,-117,160,-53,2024-01-24 14:47:11,0.0
4492,-277,-1339,-159,81,-19,2024-01-24 14:47:11,0.0
4468,-610,-1247,-188,586,-9,2024-01-24 14:47:11,0.0
5124,-466,-1085,-83,711,-27,2024-01-24 14:47:11,0.0
4838,-341,-1001,-10,1284,-45,2024-01-24 14:47:11,0.0
5175,-319,-408,39,1575,-96,2024-01-24 14:47:11,0.0
5085,-450,307,82,1405,93,2024-01-24 14:47:11,0.0
4279,-365,462,114,1301,28,2024-01-24 14:47:11,0.0
3997,-324,1456,86,1015,-15,2024-01-24 14:47:11,0.0
4135,-352,1768,59,617,-67,2024-01-24 14:47:11,0.0
3881,-282,1865,8,1103,17,2024-01-24 14:47:11,0.0
3781,-254,1765,18,533,-53,2024-01-24 14:47:11,0.0
3946,-208,1679,-64,-91,-18,2024-01-24 14:47:12,0.0
4152,-242,1509,-53,221,-29,2024-01-24 14:47:12,0.0
3930,-229,1618,-57,37,-34,2024-01-24 14:47:12,0.0
4176,-312,1490,-11,219,-19,2024-01-24 14:47:12,0.0
3702,-245,1943,-3,235,-4,2024-01-24 14:47:12,0.0
4026,-283,1723,-26,3,18,2024-01-24 14:47:12,0.0
3805,-192,1862,-27,-28,14,2024-01-24 14:47:12,0.0
3875,-272,1809,-47,-133,0,2024-01-24 14:47:12,0.0
4152,-373,1644,-29,45,-12,2024-01-24 14:47:12,0.0
3886,-174,1765,-50,150,-9,2024-01-24 14:47:12,0.0
3769,-192,1892,-69,-310,35,2024-01-24 14:47:12,0.0
3847,-250,1775,-100,-709,56,2024-01-24 14:47:12,0.0
4081,-255,1495,-75,-599,44,2024-01-24 14:47:12,0.0
3910,-313,1513,-45,-764,38,2024-01-24 14:47:12,0.0
4390,-354,981,-33,-775,71,2024-01-24 14:47:12,0.0
4198,-240,1058,-88,-564,44,2024-01-24 14:47:12,0.0
4195,-338,1027,-87,-555,0,2024-01-24 14:47:12,0.0
4070,-260,795,-95,-830,42,2024-01-24 14:47:13,0.0
4153,-306,574,-95,-1043,17,2024-01-24 14:47:13,0.0
4339,-321,351,-86,-1266,76,2024-01-24 14:47:13,0.0
4428,-302,4,-96,-1470,32,2024-01-24 14:47:13,0.0
4382,-424,-294,-96,-1456,56,2024-01-24 14:47:13,0.0
4828,-276,-776,-135,-1659,-8,2024-01-24 14:47:13,0.0
4891,-416,-1344,-121,-1249,16,2024-01-24 14:47:13,0.0
5064,-473,-2354,14,-688,17,2024-01-24 14:47:13,0.0
4510,-360,-2034,13,-188,69,2024-01-24 14:47:13,0.0
4372,-411,-1869,88,93,-32,2024-01-24 14:47:13,0.0
4112,-175,-1727,28,307,-15,2024-01-24 14:47:13,0.0
4359,-403,-1526,-45,384,-11,2024-01-24 14:47:13,0.0
4033,-364,-1245,-50,550,-20,2024-01-24 14:47:13,0.0
4081,-267,-1175,-75,552,-64,2024-01-24 14:47:13,0.0
4001,-336,-1068,-39,698,-29,2024-01-24 14:47:13,0.0
3926,-320,-807,28,581,-12,2024-01-24 14:47:13,0.0
4037,-229,-781,38,563,-52,2024-01-24 14:47:13,0.0
3998,-301,-656,-6,503,-31,2024-01-24 14:47:13,0.0
3878,-341,-592,-8,583,-72,2024-01-24 14:47:14,0.0
3787,-348,-392,-25,395,-83,2024-01-24 14:47:14,
3857,-146,-340,-103,328,-91,2024-01-24 14:47:14,0.0
4248,-307,-288,-168,214,-50,2024-01-24 14:47:14,0.0
4154,-328,-140,-134,362,-74,2024-01-24 14:47:14,0.0
4132,-130,-83,-138,199,-56,2024-01-24 14:47:14,0.0
4144,-296,-62,-126,102,-33,2024-01-24 14:47:14,0.0
4253,-5,-55,-152,115,-40,2024-01-24 14:47:14,0.0
4356,-85,54,-197,125,-8,2024-01-24 14:47:14,0.0
4331,-188,189,-180,108,21,2024-01-24 14:47:14,0.0
4440,-123,-11,-136,-80,21,2024-01-24 14:47:14,0.0
4349,-145,-104,-113,174,27,2024-01-24 14:47:14,0.0
4312,-220,-20,-90,34,39,2024-01-24 14:47:14,0.0
4337,-185,-17,-55,57,58,2024-01-24 14:47:14,0.0
4435,-287,34,-85,-34,36,2024-01-24 14:47:14,0.0
4283,-181,-36,-103,-67,-14,2024-01-24 14:47:14,0.0
4221,-266,62,-71,-96,-4,2024-01-24 14:47:14,0.0
4185,-223,32,-33,-102,-4,2024-01-24 14:47:15,0.0
4403,-228,184,-6,-126,11,2024-01-24 14:47:15,0.0
4330,-194,49,13,-61,17,2024-01-24 14:47:15,0.0
4431,-178,134,3,-90,5,2024-01-24 14:47:15,0.0
4482,-146,144,-5,25,64,2024-01-24 14:47:15,0.0
4369,-249,71,5,-37,29,2024-01-24 14:47:15,0.0
4356,-111,106,7,48,28,2024-01-24 14:47:15,0.0
4372,-196,89,4,12,28,2024-01-24 14:47:15,0.0
4237,-124,33,-6,1,29,2024-01-24 14:47:15,0.0
4322,-210,54,-19,-117,36,2024-01-24 14:47:15,0.0
4231,-182,14,-18,-153,50,2024-01-24 14:47:15,0.0
4361,-222,18,-55,-245,34,2024-01-24 14:47:15,0.0
4259,-245,104,-58,-270,50,2024-01-24 14:47:15,0.0
4433,-305,-93,-35,-224,61,2024-01-24 14:47:15,0.0
4553,-321,-66,35,41,55,2024-01-24 14:47:15,0.0
4152,-168,361,1,-70,66,2024-01-24 14:47:15,0.0
4567,-186,141,-40,-158,75,2024-01-24 14:47:15,0.0
4485,-59,82,-162,71,-4,2024-01-24 14:47:15,0.0
4411,-76,-35,-292,113,5,2024-01-24 14:47:16,0.0
4286,-509,91,-234,184,-148,2024-01-24 14:47:16,0.0
4128,-715,408,105,-21,-266,2024-01-24 14:47:16,0.0
4523,-139,2,260,-69,-198,2024-01-24 14:47:16,0.0
4082,-344,139,373,27,-80,2024-01-24 14:47:16,0.0
4628,-229,-106,435,87,-51,2024-01-24 14:47:16,0.0
4048,-176,47,439,149,-10,2024-01-24 14:47:16,0.0
4368,-122,23,434,-112,40,2024-01-24 14:47:16,0.0
4400,-91,76,346,-78,46,2024-01-24 14:47:16,0.0
4333,23,174,111,-30,62,2024-01-24 14:47:16,0.0
4258,70,-164,-117,-116,36,2024-01-24 14:47:16,0.0
3900,-9,-223,-256,-142,49,2024-01-24 14:47:16,0.0
3673,-155,-499,-354,-212,81,2024-01-24 14:47:16,0.0
3264,88,-395,-404,-376,160,2024-01-24 14:47:16,0.0
3457,-284,-385,-362,-535,264,2024-01-24 14:47:16,0.0
3978,-354,-309,-334,-662,159,2024-01-24 14:47:16,0.0
4314,-247,-516,-298,-766,79,2024-01-24 14:47:16,0.0
4610,-571,-803,-256,-718,141,2024-01-24 14:47:17,0.0
4733,-368,-753,-77,-481,98,2024-01-24 14:47:17,0.0
4330,-336,-917,-40,-634,112,2024-01-24 14:47:17,0.0
3926,-336,-779,-1,-188,-46,2024-01-24 14:47:17,0.0
4590,-215,-1060,12,-134,89,2024-01-24 14:47:17,0.0
4087,-432,-1033,-13,40,-8,2024-01-24 14:47:17,0.0
4736,-523,-1327,-96,512,75,2024-01-24 14:47:17,0.0
4911,-356,-1106,39,751,43,2024-01-24 14:47:17,0.0
5037,-539,-793,10,1448,-67,2024-01-24 14:47:17,0.0
5446,-337,-174,104,1508,-21,2024-01-24 14:47:17,0.0
4903,-233,430,12,1461,40,2024-01-24 14:47:17,0.0
3911,-300,820,71,1265,-33,2024-01-24 14:47:17,0.0
4022,-410,1411,-12,828,-100,2024-01-24 14:47:17,0.0
4331,-465,1573,79,1012,-54,2024-01-24 14:47:17,0.0
3706,-281,1646,-27,923,-52,2024-01-24 14:47:17,0.0
3919,-266,1771,-33,458,-54,2024-01-24 14:47:17,0.0
3867,-202,1748,-31,466,-95,2024-01-24 14:47:17,0.0
3928,-208,1660,-14,79,-44,2024-01-24 14:47:17,0.0
3919,-185,1757,-16,28,-45,2024-01-24 14:47:18,0.0
3891,-231,1934,-27,22,-21,2024-01-24 14:47:18,0.0
3910,-228,1820,-11,-29,1,2024-01-24 14:47:18,0.0
3881,-156,1765,-62,-193,17,2024-01-24 14:47:18,0.0
4068,-196,1684,-91,-137,4,2024-01-24 14:47:18,0.0
3879,-202,1697,-70,-84,34,2024-01-24 14:47:18,0.0
3938,-204,1812,-74,-359,12,2024-01-24 14:47:18,0.0
4098,-261,1576,-74,-195,5,2024-01-24 14:47:18,0.0
3974,-233,1554,-43,-284,51,2024-01-24 14:47:18,0.0
4231,-221,1393,-4,-215,55,2024-01-24 14:47:18,0.0
4007,-228,1539,-42,-269,23,2024-01-24 14:47:18,0.0
4193,-306,1378,-38,-222,9,2024-01-24 14:47:18,0.0
4127,-289,1430,-48,-178,-4,2024-01-24 14:47:18,0.0
4144,-154,1446,-43,-145,-24,2024-01-24 14:47:18,0.0
3985,-273,1371,-10,-192,2,2024-01-24 14:47:18,0.0
4127,-299,1074,37,-480,58,2024-01-24 14:47:18,0.0
4124,-159,962,-91,-688,-27,2024-01-24 14:47:18,0.0
4248,-249,1002,-8,-768,10,2024-01-24 14:47:19,0.0
4120,-175,954,-34,-882,10,2024-01-24 14:47:19,0.0
4227,-304,674,-43,-977,51,2024-01-24 14:47:19,0.0
4314,-258,272,-6,-1108,29,2024-01-24 14:47:19,0.0
4140,-146,23,-86,-1563,105,2024-01-24 14:47:19,0.0
4246,-271,-426,-43,-1611,56,2024-01-24 14:47:19,0.0
4735,-220,-823,-57,-1521,79,2024-01-24 14:47:19,0.0
4911,-550,-1235,-29,-1529,131,2024-01-24 14:47:19,0.0
5239,-339,-2002,-12,-1221,103,2024-01-24 14:47:19,0.0
4886,-514,-2442,39,-331,-21,2024-01-24 14:47:19,0.0
4445,-155,-2259,-25,-98,162,2024-01-24 14:47:19,0.0
4465,-447,-1877,-143,360,53,2024-01-24 14:47:19,0.0
4395,-236,-1776,-141,322,47,2024-01-24 14:47:19,0.0
4243,-234,-1373,-178,780,-53,2024-01-24 14:47:19,0.0
4005,-274,-1194,-159,658,-23,2024-01-24 14:47:19,
3947,-312,-1211,-127,793,-33,2024-01-24 14:47:20,0.0
3707,-415,-907,-64,714,-58,2024-01-24 14:47:20,0.0
3909,-362,-847,17,713,-31,2024-01-24 14:47:20,0.0
3646,-83,-698,-28,862,-89,2024-01-24 14:47:20,0.0
3399,-215,-514,-145,571,-66,2024-01-24 14:47:20,0.0
3996,-208,-552,-207,370,-2,2024-01-24 14:47:20,0.0
3777,-256,-387,-186,673,-32,2024-01-24 14:47:20,0.0
4080,-352,-93,-144,259,-81,2024-01-24 14:47:20,0.0
4189,-362,-150,-25,362,-80,2024-01-24 14:47:20,0.0
4247,-202,-12,84,165,-33,2024-01-24 14:47:20,0.0
4426,-30,-210,25,-9,-2,2024-01-24 14:47:20,0.0
4353,-111,23,-151,190,-59,2024-01-24 14:47:20,0.0
4263,-310,-16,-93,126,18,2024-01-24 14:47:20,0.0
4278,-174,2,5,-22,38,2024-01-24 14:47:20,0.0
4302,-52,-49,-34,-19,29,2024-01-24 14:47:20,0.0
4407,-107,45,-77,-103,16,2024-01-24 14:47:20,0.0
4248,-150,67,-95,-101,9,2024-01-24 14:47:20,0.0
4360,-108,57,-115,-83,-4,2024-01-24 14:47:20,0.0
4220,-334,83,-79,-105,-5,2024-01-24 14:47:20,0.0
4747,21,245,-105,57,9,2024-01-24 14:47:20,0.0
4188,-300,250,-170,-55,9,2024-01-24 14:47:21,0.0
4389,-136,240,-68,71,32,2024-01-24 14:47:21,0.0
4326,-197,90,-48,-16,25,2024-01-24 14:47:21,0.0
4339,-68,43,-25,-13,18,2024-01-24 14:47:21,0.0
4307,-198,94,-42,-25,14,2024-01-24 14:47:21,0.0
4325,-182,68,12,-59,41,2024-01-24 14:47:21,0.0
4333,-151,85,-7,-75,30,2024-01-24 14:47:21,0.0
4333,-188,166,9,-68,27,2024-01-24 14:47:21,0.0
4315,-190,105,-9,-87,20,2024-01-24 14:47:21,0.0
4294,-265,75,-12,-85,27,2024-01-24 14:47:21,0.0
4306,-254,26,9,-130,31,2024-01-24 14:47:21,0.0
4355,-271,-25,29,-183,52,2024-01-24 14:47:21,0.0
4229,-235,-29,16,-274,51,2024-01-24 14:47:21,0.0
4304,-302,-147,38,-383,80,2024-01-24 14:47:21,0.0
4266,-226,-251,15,-407,68,2024-01-24 14:47:21,0.0
4161,-168,-406,-25,-596,99,2024-01-24 14:47:21,0.0
4166,-277,-448,-55,-583,90,2024-01-24 14:47:21,0.0
4128,-296,-752,-75,-670,97,2024-01-24 14:47:21,0.0
3930,-326,-657,-21,-734,92,2024-01-24 14:47:22,0.0
4261,-440,-1118,51,-695,43,2024-01-24 14:47:22,0.0
3725,-112,-843,-51,-539,-79,2024-01-24 14:47:22,0.0
4247,-309,-1169,-86,-562,61,2024-01-24 14:47:22,0.0
3793,-326,-1070,-27,-313,57,2024-01-24 14:47:22,0.0
4023,-411,-1260,-98,-250,33,2024-01-24 14:47:22,0.0
3759,-364,-1067,-29,-111,56,2024-01-24 14:47:22,0.0
3853,-478,-1163,73,60,143,2024-01-24 14:47:22,0.0
3721,-240,-1024,56,310,-79,2024-01-24 14:47:22,0.0
4056,-494,-1141,97,148,57,2024-01-24 14:47:22,0.0
4239,-333,-1279,41,199,-33,2024-01-24 14:47:22,0.0
4216,-622,-1184,103,232,53,2024-01-24 14:47:22,0.0
4616,-216,-1494,-8,210,-70,2024-01-24 14:47:22,0.0
5348,-533,-1287,-1,468,-70,2024-01-24 14:47:22,0.0
5076,-333,-850,-4,1136,-225,2024-01-24 14:47:22,0.0
5732,-652,-652,69,1209,45,2024-01-24 14:47:22,0.0
4234,-424,-24,5,1616,-22,2024-01-24 14:47:22,0.0
4034,-344,705,-35,912,43,2024-01-24 14:47:23,0.0
4289,-244,759,118,822,-83,2024-01-24 14:47:23,0.0
4309,-323,1087,84,690,-81,2024-01-24 14:47:23,0.0
4045,-227,1301,26,537,-19,2024-01-24 14:47:23,0.0
3905,-312,1481,13,461,-50,2024-01-24 14:47:23,0.0
4363,-117,1128,-39,216,-42,2024-01-24 14:47:23,0.0
3863,-334,1071,-32,78,21,2024-01-24 14:47:23,0.0
4393,-273,1016,9,48,-3,2024-01-24 14:47:23,0.0
4066,-191,1206,-38,-8,-16,2024-01-24 14:47:23,0.0
4241,-223,1205,-74,26,-61,2024-01-24 14:47:23,0.0
4134,-224,1178,-89,57,-13,2024-01-24 14:47:23,0.0
4163,-242,1260,-59,-30,19,2024-01-24 14:47:23,0.0
4086,-235,1266,-75,-7,-1,2024-01-24 14:47:23,0.0
4235,-292,1199,-51,-95,23,2024-01-24 14:47:23,0.0
4109,-196,1251,-36,-76,-5,2024-01-24 14:47:23,0.0
4213,-245,1210,-41,-103,4,2024-01-24 14:47:23,0.0
4208,-272,1152,-54,-86,5,2024-01-24 14:47:23,0.0
4159,-179,1128,-49,-50,26,2024-01-24 14:47:23,0.0
4215,-202,1164,-62,-90,24,2024-01-24 14:47:24,0.0
4159,-258,1123,-51,-114,35,2024-01-24 14:47:24,0.0
4191,-241,1126,-30,-149,48,2024-01-24 14:47:24,0.0
4153,-306,1165,-35,-151,23,2024-01-24 14:47:24,0.0
4252,-298,1104,-16,-221,47,2024-01-24 14:47:24,0.0
4088,-204,1097,-57,-286,32,2024-01-24 14:47:24,0.0
4259,-275,928,-8,-401,53,2024-01-24 14:47:24,0.0
4102,-222,981,-45,-540,50,2024-01-24 14:47:24,0.0
4176,-281,779,-30,-760,55,2024-01-24 14:47:24,0.0
4082,-258,639,-60,-1067,46,2024-01-24 14:47:24,0.0
4223,-302,257,-76,-1255,69,2024-01-24 14:47:24,0.0
4363,-264,111,-176,-1422,29,2024-01-24 14:47:24,0.0
4683,-378,-85,-154,-1303,48,2024-01-24 14:47:24,0.0
4973,-331,-776,-146,-1576,115,2024-01-24 14:47:24,0.0
5235,-699,-1429,-140,-1230,68,2024-01-24 14:47:24,0.0
4810,-397,-1981,-54,-801,42,2024-01-24 14:47:24,0.0
4856,-532,-2126,-19,-260,47,2024-01-24 14:47:24,0.0
4243,-369,-1776,20,-7,-28,2024-01-24 14:47:25,0.0
4594,-372,-1784,-17,229,-55,2024-01-24 14:47:25,0.0
3978,-260,-1511,-8,442,-57,2024-01-24 14:47:25,0.0
4218,-399,-1287,-88,499,-114,2024-01-24 14:47:25,0.0
3749,-231,-1110,-45,559,-101,2024-01-24 14:47:25,0.0
3978,-300,-1102,-24,649,18,2024-01-24 14:47:25,0.0
3781,-207,-847,-69,567,-27,2024-01-24 14:47:25,0.0
3886,-237,-773,-85,557,-6,2024-01-24 14:47:25,0.0
3712,-266,-653,-20,692,-7,2024-01-24 14:47:25,0.0
3755,-212,-446,-18,479,-37,2024-01-24 14:47:25,
3854,-381,-435,13,552,-31,2024-01-24 14:47:25,0.0
4052,-140,-251,-21,357,-18,2024-01-24 14:47:25,0.0
4371,-229,-133,-67,448,-32,2024-01-24 14:47:25,0.0
4218,-327,95,-30,406,-59,2024-01-24 14:47:25,0.0
3943,-116,19,-49,85,-21,2024-01-24 14:47:25,0.0
4445,-213,-245,-116,-20,-3,2024-01-24 14:47:25,0.0
4358,-266,-119,-180,179,-19,2024-01-24 14:47:25,0.0
4404,-329,15,-147,-21,4,2024-01-24 14:47:25,0.0
4248,-311,-106,-31,-50,21,2024-01-24 14:47:26,0.0
4390,-170,-93,-21,-74,25,2024-01-24 14:47:26,0.0
4343,-264,-33,-9,-99,27,2024-01-24 14:47:26,0.0
4405,-239,45,30,-67,30,2024-01-24 14:47:26,0.0
4327,-122,20,12,-69,24,2024-01-24 14:47:26,0.0
4447,-203,24,-37,-13,4,2024-01-24 14:47:26,0.0
4353,-219,135,-65,8,14,2024-01-24 14:47:26,0.0
4357,-233,61,-73,40,4,2024-01-24 14:47:26,0.0
4383,-171,127,-103,25,-1,2024-01-24 14:47:26,0.0
4295,-253,120,-110,23,2,2024-01-24 14:47:26,0.0
4358,-288,74,-77,-7,14,2024-01-24 14:47:26,0.0
4405,-249,8,-62,27,19,2024-01-24 14:47:26,0.0
4218,-208,133,-67,-41,27,2024-01-24 14:47:26,0.0
4353,-240,117,-63,-120,35,2024-01-24 14:47:26,0.0
4402,-217,62,-60,-107,28,2024-01-24 14:47:26,0.0
4280,-294,-7,-39,-129,43,2024-01-24 14:47:26,0.0
4393,-250,-48,-24,-181,46,2024-01-24 14:47:26,0.0
4165,-241,-64,-49,-309,39,2024-01-24 14:47:27,0.0
4366,-266,-234,-13,-365,46,2024-01-24 14:47:27,0.0
4175,-249,-250,-5,-367,67,2024-01-24 14:47:27,0.0
4119,-320,-348,-1,-525,59,2024-01-24 14:47:27,0.0
4076,-323,-520,42,-622,76,2024-01-24 14:47:27,0.0
4035,-284,-792,7,-740,61,2024-01-24 14:47:27,0.0
3605,-203,-622,-17,-827,67,2024-01-24 14:47:27,0.0
4150,-369,-1097,-36,-872,142,2024-01-24 14:47:27,0.0
3803,-456,-899,-60,-453,6,2024-01-24 14:47:27,0.0
3665,-379,-903,6,-334,100,2024-01-24 14:47:27,0.0
3839,-413,-925,116,-384,198,2024-01-24 14:47:27,0.0
4103,-380,-1085,69,2,98,2024-01-24 14:47:27,0.0
4397,-693,-1226,42,-167,-13,2024-01-24 14:47:27,0.0
4370,-161,-1303,-126,99,-110,2024-01-24 14:47:27,0.0
4385,-607,-1352,-137,292,-66,2024-01-24 14:47:27,0.0
4522,-597,-1363,-115,385,-85,2024-01-24 14:47:27,0.0
4316,-308,-1231,-77,455,-52,2024-01-24 14:47:27,0.0
4403,-466,-1230,-36,450,-3,2024-01-24 14:47:28,0.0
4940,-462,-1231,-20,664,-70,2024-01-24 14:47:28,0.0
4526,-367,-602,100,919,12,2024-01-24 14:47:28,0.0
5143,-281,-453,14,768,-57,2024-01-24 14:47:28,0.0
4871,-242,68,32,760,-10,2024-01-24 14:47:28,0.0
4505,-241,282,1,1067,-67,2024-01-24 14:47:28,0.0
4035,-408,748,-38,870,-111,2024-01-24 14:47:28,0.0
4444,-411,665,7,728,-55,2024-01-24 14:47:28,0.0
4297,-349,736,30,766,-77,2024-01-24 14:47:28,0.0
4035,-189,1020,-12,472,-67,2024-01-24 14:47:28,0.0
4260,-190,1072,0,374,-69,2024-01-24 14:47:28,0.0
4106,-166,1359,-37,318,-64,2024-01-24 14:47:28,0.0
4080,-162,1369,-58,244,-50,2024-01-24 14:47:28,0.0
4187,-173,1342,-59,76,11,2024-01-24 14:47:28,0.0
4106,-131,1347,-75,204,7,2024-01-24 14:47:28,0.0
4082,-178,1317,-60,22,34,2024-01-24 14:47:28,0.0
4094,-173,1375,-97,13,24,2024-01-24 14:47:28,0.0
4104,-200,1379,-68,-109,52,2024-01-24 14:47:28,0.0
4091,-209,1348,-51,-32,35,2024-01-24 14:47:29,0.0
4097,-278,1375,-45,-111,38,2024-01-24 14:47:29,0.0
4209,-223,1251,-43,-82,40,2024-01-24 14:47:29,0.0
4076,-263,1218,-47,-117,24,2024-01-24 14:47:29,0.0
4208,-220,1155,-30,-69,22,2024-01-24 14:47:29,0.0
4061,-185,1291,-38,-202,11,2024-01-24 14:47:29,0.0
4136,-264,1288,-32,-147,29,2024-01-24 14:47:29,0.0
4140,-216,1235,-52,-252,24,2024-01-24 14:47:29,0.0
4185,-251,1097,-38,-172,47,2024-01-24 14:47:29,0.0
4218,-241,1084,-50,-201,31,2024-01-24 14:47:29,0.0
4271,-256,1012,-71,-210,24,2024-01-24 14:47:29,0.0
4175,-336,990,-46,-164,33,2024-01-24 14:47:29,0.0
4225,-268,848,-42,-317,15,2024-01-24 14:47:29,0.0
4279,-265,760,-55,-313,22,2024-01-24 14:47:29,0.0
4211,-263,789,-55,-321,-1,2024-01-24 14:47:29,0.0
4246,-258,730,-52,-448,26,2024-01-24 14:47:29,0.0
4182,-272,691,-64,-504,44,2024-01-24 14:47:29,0.0
4343,-254,452,-90,-599,81,2024-01-24 14:47:30,0.0
4170,-318,447,-89,-675,56,2024-01-24 14:47:30,0.0
4430,-300,146,-69,-688,16,2024-01-24 14:47:30,0.0
4165,-258,317,-65,-864,-19,2024-01-24 14:47:30,0.0
4671,-279,-6,-57,-1013,52,2024-01-24 14:47:30,0.0
4501,-373,-126,-150,-933,58,2024-01-24 14:47:30,0.0
4935,-249,-881,-130,-1166,36,2024-01-24 14:47:30,0.0
4768,-304,-1190,-158,-658,33,2024-01-24 14:47:30,0.0
4635,-472,-1397,-5,-728,-15,2024-01-24 14:47:30,0.0
4764,-393,-1558,23,-259,-7,2024-01-24 14:47:30,0.0
4577,-400,-1444,49,46,-40,2024-01-24 14:47:30,0.0
4310,-274,-1362,26,-77,-30,2024-01-24 14:47:30,0.0
4753,-291,-1464,32,391,17,2024-01-24 14:47:30,0.0
4471,-276,-1189,-58,365,29,2024-01-24 14:47:30,0.0
4172,-302,-937,-111,614,-41,2024-01-24 14:47:30,0.0
3900,-304,-750,-86,550,29,2024-01-24 14:47:30,0.0
3801,-415,-733,-102,431,55,2024-01-24 14:47:30,0.0
3625,-379,-641,-33,244,113,2024-01-24 14:47:30,0.0
4089,-288,-716,-45,223,58,2024-01-24 14:47:31,0.0
3865,-561,-469,19,518,32,2024-01-24 14:47:31,0.0
3966,-354,-421,96,360,-71,2024-01-24 14:47:31,0.0
4258,-397,-482,99,483,-15,2024-01-24 14:47:31,0.0
3960,-253,-316,34,535,-124,2024-01-24 14:47:31,
3834,-196,-327,-35,421,-107,2024-01-24 14:47:31,0.0
3963,-279,-183,-115,104,-14,2024-01-24 14:47:31,0.0
4395,-263,64,-154,94,-2,2024-01-24 14:47:31,0.0
4376,-297,146,-152,173,-12,2024-01-24 14:47:31,0.0
4145,-284,163,-131,34,-32,2024-01-24 14:47:31,0.0
4369,-259,9,-111,24,-10,2024-01-24 14:47:31,0.0
4377,-232,69,-130,49,-2,2024-01-24 14:47:31,0.0
4384,-243,133,-169,41,0,2024-01-24 14:47:31,0.0
4347,-391,301,-178,37,-28,2024-01-24 14:47:31,0.0
4333,-315,236,-33,-49,23,2024-01-24 14:47:31,0.0
4401,-326,237,59,-37,19,2024-01-24 14:47:31,0.0
4309,-169,266,94,34,20,2024-01-24 14:47:31,0.0
4333,-216,331,76,-9,36,2024-01-24 14:47:31,0.0
4323,-143,295,4,38,-2,2024-01-24 14:47:32,0.0
4287,-251,289,1,-51,14,2024-01-24 14:47:32,0.0
4305,-342,323,19,-26,11,2024-01-24 14:47:32,0.0
4343,-299,271,49,-99,25,2024-01-24 14:47:32,0.0
4289,-355,295,72,-97,27,2024-01-24 14:47:32,0.0
4388,-368,175,56,-94,24,2024-01-24 14:47:32,0.0
4330,-375,287,42,-78,6,2024-01-24 14:47:32,0.0
4309,-366,147,16,-83,1,2024-01-24 14:47:32,0.0
4363,-391,105,-49,-101,-23,2024-01-24 14:47:32,0.0
4283,-383,7,-91,-136,-22,2024-01-24 14:47:32,0.0
4371,-332,17,-173,-158,-6,2024-01-24 14:47:32,0.0
4270,-198,-115,-293,-232,-36,2024-01-24 14:47:32,0.0
4388,-63,-133,-403,-294,-97,2024-01-24 14:47:32,0.0
4261,299,-145,-546,-447,-153,2024-01-24 14:47:32,0.0
4648,77,-46,-433,-239,-65,2024-01-24 14:47:32,0.0
4374,27,77,-97,3,9,2024-01-24 14:47:32,0.0
4334,489,79,-92,-40,8,2024-01-24 14:47:33,0.0
4231,315,-117,-120,-30,106,2024-01-24 14:47:33,0.0
4361,-49,-245,41,-120,202,2024-01-24 14:47:33,0.0
4499,-287,-475,133,-12,87,2024-01-24 14:47:33,0.0
4048,-394,-287,330,-145,102,2024-01-24 14:47:33,0.0
4119,-314,-515,367,-464,97,2024-01-24 14:47:33,0.0
3911,-825,-735,480,-573,133,2024-01-24 14:47:33,0.0
3805,-924,-606,540,-856,150,2024-01-24 14:47:33,0.0
4103,-114,-945,-174,-809,-13,2024-01-24 14:47:33,0.0
3575,-13,-765,-808,-385,25,2024-01-24 14:47:33,0.0
2857,-1382,-1450,-377,-1128,112,2024-01-24 14:47:33,0.0
4181,-484,-1178,168,-944,248,2024-01-24 14:47:33,0.0
3454,298,-1307,-154,-569,-101,2024-01-24 14:47:33,0.0
3971,-658,-1332,-57,-403,1,2024-01-24 14:47:33,0.0
4104,-291,-1507,179,-287,15,2024-01-24 14:47:33,0.0
4366,-505,-1830,176,-173,54,2024-01-24 14:47:33,0.0
4233,-326,-1624,42,-117,28,2024-01-24 14:47:33,0.0
4192,-305,-1883,-81,-69,2,2024-01-24 14:47:33,0.0
4628,-558,-2073,-79,353,28,2024-01-24 14:47:34,0.0
4589,-421,-1983,-76,333,-29,2024-01-24 14:47:34,0.0
4686,-332,-1738,-92,570,-154,2024-01-24 14:47:34,0.0
4899,-94,-1607,-80,904,-110,2024-01-24 14:47:34,0.0
4713,-278,-1311,-61,1060,-66,2024-01-24 14:47:34,0.0
4309,-263,-553,-63,1085,-56,2024-01-24 14:47:34,0.0
4360,-519,-341,-31,922,-20,2024-01-24 14:47:34,0.0
4285,-480,-194,12,891,36,2024-01-24 14:47:34,0.0
4344,-437,91,20,698,44,2024-01-24 14:47:34,0.0
4328,-302,242,4,577,2,2024-01-24 14:47:34,0.0
4314,-218,268,-36,472,-59,2024-01-24 14:47:34,0.0
4287,-255,454,13,476,-53,2024-01-24 14:47:34,0.0
4143,-294,551,-28,243,-70,2024-01-24 14:47:34,0.0
4365,-301,533,42,148,35,2024-01-24 14:47:34,0.0
4308,-105,655,-1,313,21,2024-01-24 14:47:34,0.0
4232,-176,725,-29,357,8,2024-01-24 14:47:34,0.0
4209,-242,762,-65,152,10,2024-01-24 14:47:34,0.0
4234,-311,720,-77,-14,20,2024-01-24 14:47:34,0.0
4301,-228,729,-69,-27,31,2024-01-24 14:47:35,0.0
4272,-330,776,-58,18,32,2024-01-24 14:47:35,0.0
4235,-316,759,-41,23,31,2024-01-24 14:47:35,0.0
4348,-291,750,-32,68,33,2024-01-24 14:47:35,0.0
4148,-272,838,-41,76,35,2024-01-24 14:47:35,0.0
4313,-270,803,-51,-50,16,2024-01-24 14:47:35,0.0
4231,-292,808,-41,-5,23,2024-01-24 14:47:35,0.0
4297,-343,837,-43,-12,23,2024-01-24 14:47:35,0.0
4254,-321,827,-28,70,23,2024-01-24 14:47:35,0.0
4231,-268,891,-40,-21,34,2024-01-24 14:47:35,0.0
4203,-318,910,-23,-87,21,2024-01-24 14:47:35,0.0
4178,-359,950,-21,-87,30,2024-01-24 14:47:35,0.0
4284,-245,868,-39,-185,6,2024-01-24 14:47:35,0.0
4173,-361,928,-29,-202,40,2024-01-24 14:47:35,0.0
4332,-355,694,-36,-264,28,2024-01-24 14:47:35,0.0
4165,-320,738,-47,-362,53,2024-01-24 14:47:35,0.0
4244,-283,578,-72,-475,30,2024-01-24 14:47:35,0.0
4235,-291,511,-60,-646,53,2024-01-24 14:47:36,0.0
4229,-357,483,-92,-800,28,2024-01-24 14:47:36,0.0
4307,-349,208,-96,-945,55,2024-01-24 14:47:36,0.0
4399,-327,-10,-116,-1040,39,2024-01-24 14:47:36,0.0
4419,-450,-470,-93,-1015,71,2024-01-24 14:47:36,0.0
4248,-428,-823,-132,-1064,6,2024-01-24 14:47:36,0.0
4227,-552,-1109,-38,-1304,58,2024-01-24 14:47:36,0.0
5160,-382,-1323,-33,-1592,29,2024-01-24 14:47:36,0.0
5237,-616,-2025,-23,-728,55,2024-01-24 14:47:36,0.0
4703,-316,-2128,37,-181,-17,2024-01-24 14:47:36,0.0
4744,-412,-2006,-14,271,27,2024-01-24 14:47:36,0.0
4263,-300,-1697,-127,628,-38,2024-01-24 14:47:36,0.0
4247,-371,-1411,-136,506,67,2024-01-24 14:47:36,0.0
4231,-359,-1247,-181,642,55,2024-01-24 14:47:36,0.0
4101,-499,-961,-208,778,-20,2024-01-24 14:47:36,0.0
4041,-375,-946,-142,628,-37,2024-01-24 14:47:36,0.0
4064,-443,-790,-106,776,-34,2024-01-24 14:47:36,0.0
4147,-360,-652,-52,828,-21,2024-01-24 14:47:36,
3484,-294,-443,-83,963,-165,2024-01-24 14:47:37,0.0
3153,-412,-101,14,515,-50,2024-01-24 14:47:37,0.0
3958,-248,-472,17,178,-73,2024-01-24 14:47:37,0.0
4065,-340,-68,50,391,-9,2024-01-24 14:47:37,0.0
4183,-267,-148,12,225,-40,2024-01-24 14:47:37,0.0
4022,-179,107,-89,180,-88,2024-01-24 14:47:37,0.0
4280,-145,-47,-177,49,-43,2024-01-24 14:47:37,0.0
4244,-176,99,-334,-5,-29,2024-01-24 14:47:37,0.0
4319,-267,50,-335,-175,-60,2024-01-24 14:47:37,0.0
4398,-254,-135,-277,-28,-81,2024-01-24 14:47:37,0.0
4320,-201,26,-187,49,-62,2024-01-24 14:47:37,0.0
4408,-204,162,-86,146,-31,2024-01-24 14:47:37,0.0
4173,-93,219,4,92,11,2024-01-24 14:47:37,0.0
4492,13,196,-9,120,10,2024-01-24 14:47:37,0.0
4327,9,229,-40,68,-5,2024-01-24 14:47:37,0.0
4370,-14,265,-23,52,5,2024-01-24 14:47:37,0.0
4278,-68,251,-28,16,25,2024-01-24 14:47:37,0.0
4328,-26,251,-49,14,19,2024-01-24 14:47:38,0.0
4354,-134,316,-58,-12,30,2024-01-24 14:47:38,0.0
4333,-178,281,-49,2,22,2024-01-24 14:47:38,0.0
4331,-195,404,-15,-22,70,2024-01-24 14:47:38,0.0
4331,-236,383,12,-25,81,2024-01-24 14:47:38,0.0
4340,-289,371,83,-48,96,2024-01-24 14:47:38,0.0
4317,-154,397,70,-37,92,2024-01-24 14:47:38,0.0
4329,-208,362,39,-86,81,2024-01-24 14:47:38,0.0
4402,-317,315,57,-29,73,2024-01-24 14:47:38,0.0
4257,-319,247,120,-46,19,2024-01-24 14:47:38,0.0
4359,-410,317,201,-90,15,2024-01-24 14:47:38,0.0
4322,-136,277,120,-107,30,2024-01-24 14:47:38,0.0
4324,-265,283,37,-93,19,2024-01-24 14:47:38,0.0
4349,-264,173,-25,-139,48,2024-01-24 14:47:38,0.0
4188,-175,269,-110,-94,21,2024-01-24 14:47:38,0.0
4390,-166,95,-127,-247,57,2024-01-24 14:47:38,0.0
4326,-374,60,-82,-110,18,2024-01-24 14:47:38,0.0
3988,-277,-68,-42,-312,-9,2024-01-24 14:47:38,0.0
3731,-364,-125,32,-426,32,2024-01-24 14:47:39,0.0
3855,-98,-518,-95,-838,36,2024-01-24 14:47:39,0.0
3664,-399,-437,-51,-759,44,2024-01-24 14:47:39,0.0
4029,-508,-506,35,-912,38,2024-01-24 14:47:39,0.0
4187,-131,-591,65,-679,32,2024-01-24 14:47:39,0.0
4163,-353,-601,-19,-339,92,2024-01-24 14:47:39,0.0
4124,-187,-582,-135,-207,45,2024-01-24 14:47:39,0.0
4152,-467,-628,-127,54,46,2024-01-24 14:47:39,0.0
4278,-75,-757,-169,25,20,2024-01-24 14:47:39,0.0
4248,-568,-891,-94,132,4,2024-01-24 14:47:39,0.0
4348,-36,-942,-57,49,47,2024-01-24 14:47:39,0.0
4379,-540,-1102,-121,263,11,2024-01-24 14:47:39,0.0
4685,-517,-944,14,326,113,2024-01-24 14:47:39,0.0
4522,-408,-727,-13,464,58,2024-01-24 14:47:39,0.0
5404,-550,-758,57,817,84,2024-01-24 14:47:39,0.0
5124,-324,-167,76,801,59,2024-01-24 14:47:39,0.0
4939,-380,147,136,1050,122,2024-01-24 14:47:39,0.0
3930,-367,703,57,942,-13,2024-01-24 14:47:39,0.0
4362,-492,998,56,718,21,2024-01-24 14:47:40,0.0
4145,-491,965,9,693,-55,2024-01-24 14:47:40,0.0
4375,-470,1096,-82,476,-77,2024-01-24 14:47:40,0.0
3817,-450,1277,-103,246,-63,2024-01-24 14:47:40,0.0
4288,-521,1077,-72,202,-60,2024-01-24 14:47:40,0.0
4156,-281,1118,-48,270,-46,2024-01-24 14:47:40,0.0
4113,-263,1169,-71,14,-45,2024-01-24 14:47:40,0.0
4263,-224,1074,-45,-30,-12,2024-01-24 14:47:40,0.0
4099,-324,1171,-26,-30,18,2024-01-24 14:47:40,0.0
4307,-359,1023,-5,-12,38,2024-01-24 14:47:40,0.0
4151,-411,1217,4,3,25,2024-01-24 14:47:40,0.0
4150,-381,1171,-10,8,15,2024-01-24 14:47:40,0.0
4170,-371,1277,-26,-9,24,2024-01-24 14:47:40,0.0
4134,-302,1210,-38,-66,30,2024-01-24 14:47:40,0.0
4196,-255,1138,-41,-82,20,2024-01-24 14:47:40,0.0
4130,-381,1177,-64,-95,15,2024-01-24 14:47:40,0.0
4182,-315,1151,-56,-146,33,2024-01-24 14:47:40,0.0
4244,-405,1054,-68,-147,41,2024-01-24 14:47:41,0.0
4191,-424,1085,-67,-163,12,2024-01-24 14:47:41,0.0
4217,-409,993,-47,-128,35,2024-01-24 14:47:41,0.0
4251,-385,1012,-56,-107,9,2024-01-24 14:47:41,0.0
4198,-383,962,-55,-48,15,2024-01-24 14:47:41,0.0
4267,-378,917,-53,-75,4,2024-01-24 14:47:41,0.0
4193,-386,911,-50,-48,1,2024-01-24 14:47:41,0.0
4212,-398,939,-54,-136,-4,2024-01-24 14:47:41,0.0
4159,-388,932,-33,-223,5,2024-01-24 14:47:41,0.0
4256,-381,884,-43,-304,-1,2024-01-24 14:47:41,0.0
4144,-370,998,-23,-323,23,2024-01-24 14:47:41,0.0
4253,-264,756,-79,-443,-14,2024-01-24 14:47:41,0.0
4150,-377,744,-74,-557,4,2024-01-24 14:47:41,0.0
4233,-315,671,-75,-574,-42,2024-01-24 14:47:41,0.0
4433,-370,472,-96,-705,-13,2024-01-24 14:47:41,0.0
4346,-331,344,-82,-628,-39,2024-01-24 14:47:41,0.0
4847,-507,256,-43,-931,10,2024-01-24 14:47:41,0.0
5127,-353,-88,-54,-1167,102,2024-01-24 14:47:42,0.0
5545,-681,-784,-23,-264,21,2024-01-24 14:47:42,0.0
4645,-189,-718,63,-521,38,2024-01-24 14:47:42,0.0
5132,-514,-984,81,-12,-36,2024-01-24 14:47:42,0.0
4275,-168,-589,28,-148,8,2024-01-24 14:47:42,0.0
4603,-444,-726,-18,189,0,2024-01-24 14:47:42,0.0
4013,-232,-458,-65,58,14,2024-01-24 14:47:42,0.0
4105,-470,-647,-66,201,17,2024-01-24 14:47:42,0.0
4039,-420,-475,-51,258,-11,2024-01-24 14:47:42,0.0
3867,-389,-477,-17,231,-17,2024-01-24 14:47:42,0.0
4008,-303,-438,-12,288,-10,2024-01-24 14:47:42,0.0
3709,-313,-344,-56,445,-11,2024-01-24 14:47:42,0.0
3752,-298,-225,-72,325,-18,2024-01-24 14:47:42,
4022,-405,-167,-73,410,-38,2024-01-24 14:47:42,0.0
3909,-482,77,-28,327,-33,2024-01-24 14:47:42,0.0
4248,-123,86,-55,315,-30,2024-01-24 14:47:42,0.0
3853,-638,179,-14,275,-89,2024-01-24 14:47:42,0.0
4187,-117,117,25,90,-47,2024-01-24 14:47:42,0.0
4389,-381,153,-18,-142,10,2024-01-24 14:47:43,0.0
4298,-253,128,7,162,-70,2024-01-24 14:47:43,0.0
4433,-283,222,11,34,0,2024-01-24 14:47:43,0.0
4368,-126,265,-12,145,-26,2024-01-24 14:47:43,0.0
4368,-157,365,-114,87,-1,2024-01-24 14:47:43,0.0
4493,-215,309,-168,131,-23,2024-01-24 14:47:43,0.0
4305,-274,412,-149,194,-17,2024-01-24 14:47:43,0.0
4278,-233,450,-131,95,8,2024-01-24 14:47:43,0.0
4345,-286,476,-120,63,4,2024-01-24 14:47:43,0.0
4229,-313,519,-43,21,16,2024-01-24 14:47:43,0.0
4343,-245,516,-15,-11,13,2024-01-24 14:47:43,0.0
4277,-226,507,-37,-94,11,2024-01-24 14:47:43,0.0
4312,-241,446,-51,-74,10,2024-01-24 14:47:43,0.0
4298,-230,500,-42,-64,9,2024-01-24 14:47:43,0.0
4335,-245,519,-27,-72,18,2024-01-24 14:47:43,0.0
4336,-219,494,-49,-68,2,2024-01-24 14:47:43,0.0
4299,-214,503,-52,-66,5,2024-01-24 14:47:43,0.0
4349,-231,477,-52,-63,7,2024-01-24 14:47:44,0.0
4311,-221,445,-35,-54,13,2024-01-24 14:47:44,0.0
4348,-212,476,-38,-30,5,2024-01-24 14:47:44,0.0
4330,-215,449,-53,-18,3,2024-01-24 14:47:44,0.0
4325,-235,469,-53,-15,4,2024-01-24 14:47:44,0.0
4332,-217,447,-66,-54,10,2024-01-24 14:47:44,0.0
4319,-253,395,-75,-14,10,2024-01-24 14:47:44,0.0
4327,-263,456,-66,-19,12,2024-01-24 14:47:44,0.0
4322,-292,473,-47,-34,12,2024-01-24 14:47:44,0.0
4315,-296,437,-20,-37,20,2024-01-24 14:47:44,0.0
4351,-258,397,-5,-31,29,2024-01-24 14:47:44,0.0
4364,-265,339,1,-16,35,2024-01-24 14:47:44,0.0
4294,-240,407,-13,0,21,2024-01-24 14:47:44,0.0
4209,-228,513,-41,-63,24,2024-01-24 14:47:44,0.0
4373,-310,381,-49,-165,40,2024-01-24 14:47:44,0.0
4178,-334,419,0,-122,38,2024-01-24 14:47:44,0.0
4303,-224,290,-1,-290,59,2024-01-24 14:47:44,0.0
4272,-204,250,-32,-228,43,2024-01-24 14:47:44,0.0
4354,-259,175,-43,-168,45,2024-01-24 14:47:45,0.0
4036,-146,26,-82,-279,69,2024-01-24 14:47:45,0.0
3931,-259,73,-15,-113,113,2024-01-24 14:47:45,0.0
3749,-361,112,-83,-358,76,2024-01-24 14:47:45,0.0
4122,-475,-328,-42,-517,38,2024-01-24 14:47:45,0.0
3758,-259,86,-29,-319,50,2024-01-24 14:47:45,0.0
4117,-418,-174,-9,-632,9,2024-01-24 14:47:45,0.0
4403,-316,-373,-107,-601,5,2024-01-24 14:47:45,0.0
3916,-426,-436,-95,-421,44,2024-01-24 14:47:45,0.0
4406,-503,-535,-123,-440,40,2024-01-24 14:47:45,0.0
3967,-407,-447,-149,-121,-64,2024-01-24 14:47:46,0.0
4275,-549,-439,-12,-36,45,2024-01-24 14:47:47,0.0
4069,-352,-500,-28,-171,-4,2024-01-24 14:47:47,0.0
4438,-198,-838,-15,89,46,2024-01-24 14:47:47,0.0
4881,-623,-702,5,-55,75,2024-01-24 14:47:47,0.0
4485,-326,-739,28,395,28,2024-01-24 14:47:47,0.0
5647,-275,-777,6,451,2,2024-01-24 14:47:47,0.0
5051,-119,-215,-61,759,-40,2024-01-24 14:47:47,0.0
5049,-237,5,-117,953,-70,2024-01-24 14:47:47,0.0
4396,-333,399,-155,899,-18,2024-01-24 14:47:47,0.0
4254,-366,864,-41,-45,26,2024-01-24 14:47:47,0.0
4239,-357,812,-43,-68,15,2024-01-24 14:47:47,0.0
4239,-375,824,-7,-217,17,2024-01-24 14:47:47,0.0
4291,-328,795,-24,8,13,2024-01-24 14:47:47,0.0
4254,-298,846,-32,-72,20,2024-01-24 14:47:47,0.0
4303,-337,819,-31,-17,32,2024-01-24 14:47:47,0.0
4222,-313,783,-44,-67,31,2024-01-24 14:47:47,0.0
4257,-357,811,-63,-91,18,2024-01-24 14:47:47,0.0
4176,-370,842,-81,-70,24,2024-01-24 14:47:47,0.0
4255,-412,710,-63,-188,12,2024-01-24 14:47:48,0.0
4217,-420,658,-43,-215,22,2024-01-24 14:47:48,0.0
4271,-372,688,-52,-370,14,2024-01-24 14:47:48,0.0
4286,-356,664,-15,-389,13,2024-01-24 14:47:48,0.0
4170,-376,571,-37,-437,-4,2024-01-24 14:47:48,0.0
4259,-366,585,-83,-796,-8,2024-01-24 14:47:48,0.0
4374,-324,697,-52,-752,30,2024-01-24 14:47:48,0.0
5172,-600,353,-40,-1135,43,2024-01-24 14:47:48,0.0
5053,-347,-159,-56,-1039,70,2024-01-24 14:47:48,0.0
5158,-570,-736,-26,-461,102,2024-01-24 14:47:48,0.0
4806,-360,-1105,-3,-532,17,2024-01-24 14:47:48,0.0
4888,-401,-1055,1,-185,19,2024-01-24 14:47:48,0.0
4610,-359,-911,-46,-15,-16,2024-01-24 14:47:48,0.0
4417,-355,-844,-88,94,-21,2024-01-24 14:47:49,0.0
4239,-280,-736,-110,329,-59,2024-01-24 14:47:50,0.0
3934,-315,-595,-82,322,-66,2024-01-24 14:47:50,0.0
4008,-446,-498,18,378,13,2024-01-24 14:47:50,0.0
3820,-250,-433,19,447,-28,2024-01-24 14:47:50,0.0
4063,-462,-437,26,380,13,2024-01-24 14:47:50,0.0
3807,-309,-195,9,512,-69,2024-01-24 14:47:50,0.0
3954,-363,-183,-15,344,19,2024-01-24 14:47:50,0.0
3875,-331,-125,-36,411,-41,2024-01-24 14:47:50,0.0
3989,-415,-12,-78,268,-29,2024-01-24 14:47:50,0.0
4286,-332,504,-26,-53,10,2024-01-24 14:47:51,0.0
4305,-292,471,-2,-92,30,2024-01-24 14:47:51,0.0
4298,-300,488,-9,-136,32,2024-01-24 14:47:51,0.0
4339,-256,431,-38,-128,16,2024-01-24 14:47:51,0.0
4285,-321,440,-33,-136,28,2024-01-24 14:47:51,0.0
4312,-352,318,-23,-146,28,2024-01-24 14:47:51,0.0
4320,-352,207,-7,-200,47,2024-01-24 14:47:51,0.0
4267,-272,141,-17,-197,48,2024-01-24 14:47:51,
4178,-196,32,-54,-288,70,2024-01-24 14:47:51,0.0
3919,-544,56,20,-369,55,2024-01-24 14:47:51,0.0
4245,41,9,-107,-575,4,2024-01-24 14:47:51,0.0
3945,-715,-66,138,-542,147,2024-01-24 14:47:51,0.0
4061,-273,-152,149,-668,-42,2024-01-24 14:47:51,0.0
4471,-60,-430,61,-627,56,2024-01-24 14:47:51,0.0
3797,-568,-223,-7,-360,87,2024-01-24 14:47:51,0.0
4366,-347,-620,-40,-438,14,2024-01-24 14:47:51,0.0
3786,-421,-436,-95,-316,26,2024-01-24 14:47:51,0.0
4091,-317,-668,-37,-64,52,2024-01-24 14:47:52,0.0
4027,-325,-611,-152,-291,13,2024-01-24 14:47:52,0.0
3983,-586,-739,-125,-97,-43,2024-01-24 14:47:52,0.0
4342,-340,-866,-83,37,-27,2024-01-24 14:47:52,0.0
4319,-532,-618,-116,-88,-29,2024-01-24 14:47:52,0.0
4507,-339,-961,-30,470,-10,2024-01-24 14:47:52,0.0
4907,-589,-830,-5,319,41,2024-01-24 14:47:52,0.0
4776,-400,-734,-19,376,102,2024-01-24 14:47:52,0.0
5416,-425,-740,18,845,-28,2024-01-24 14:47:52,0.0
5097,-405,-34,76,888,81,2024-01-24 14:47:52,0.0
4395,-128,361,-5,1152,0,2024-01-24 14:47:52,0.0
4430,-337,655,-106,874,-5,2024-01-24 14:47:52,0.0
4002,-484,998,12,953,-37,2024-01-24 14:47:52,0.0
4531,-552,961,-52,501,-81,2024-01-24 14:47:52,0.0
4026,-632,1217,-45,861,-7,2024-01-24 14:47:52,0.0
3988,-497,1397,9,443,-5,2024-01-24 14:47:52,0.0
4235,-202,1333,-12,303,-98,2024-01-24 14:47:52,0.0
3990,-338,1484,-16,345,-81,2024-01-24 14:47:52,0.0
4124,-310,1472,3,50,-41,2024-01-24 14:47:53,0.0
3904,-235,1646,-4,39,-16,2024-01-24 14:47:53,0.0
4185,-171,1308,-11,66,-3,2024-01-24 14:47:53,0.0
3953,-282,1576,-32,93,-8,2024-01-24 14:47:53,0.0
4055,-344,1596,-57,66,-3,2024-01-24 14:47:53,0.0
3959,-335,1630,-53,67,-5,2024-01-24 14:47:53,0.0
4027,-237,1627,-51,-39,8,2024-01-24 14:47:53,0.0
3961,-291,1731,-61,-29,9,2024-01-24 14:47:53,0.0
4111,-349,1574,-52,-125,39,2024-01-24 14:47:53,0.0
4076,-252,1506,-41,-6,15,2024-01-24 14:47:53,0.0
3963,-337,1536,-54,-93,3,2024-01-24 14:47:53,0.0
4107,-328,1527,-46,-137,9,2024-01-24 14:47:53,0.0
4070,-290,1536,-29,-7,11,2024-01-24 14:47:53,0.0
4040,-243,1497,-37,-53,10,2024-01-24 14:47:53,0.0
4087,-299,1536,-45,-60,6,2024-01-24 14:47:53,0.0
4086,-279,1529,-33,-24,16,2024-01-24 14:47:53,0.0
4039,-301,1511,-47,-34,12,2024-01-24 14:47:53,0.0
4067,-307,1521,-37,-15,21,2024-01-24 14:47:54,0.0
4006,-296,1564,-42,-86,16,2024-01-24 14:47:54,0.0
4065,-293,1532,-42,-99,27,2024-01-24 14:47:54,0.0
4072,-319,1504,-42,-93,10,2024-01-24 14:47:54,0.0
4101,-298,1469,-46,-126,14,2024-01-24 14:47:54,0.0
4088,-292,1438,-50,-112,9,2024-01-24 14:47:54,0.0
4128,-326,1392,-57,-155,16,2024-01-24 14:47:54,0.0
4084,-328,1433,-50,-119,14,2024-01-24 14:47:54,0.0
4080,-283,1388,-42,-192,18,2024-01-24 14:47:54,0.0
4139,-329,1370,-47,-193,11,2024-01-24 14:47:54,0.0
4090,-328,1293,-34,-232,25,2024-01-24 14:47:54,0.0
4144,-310,1272,-46,-224,7,2024-01-24 14:47:54,0.0
4122,-325,1186,-46,-304,-6,2024-01-24 14:47:54,0.0
4091,-280,1152,-50,-312,-1,2024-01-24 14:47:54,0.0
4165,-321,1104,-39,-464,-3,2024-01-24 14:47:54,0.0
4233,-301,980,-58,-540,-1,2024-01-24 14:47:54,0.0
4045,-239,956,-67,-704,5,2024-01-24 14:47:54,0.0
4193,-286,818,-86,-1014,30,2024-01-24 14:47:54,0.0
4333,-169,586,-120,-1352,31,2024-01-24 14:47:55,0.0
4816,-462,469,-110,-1308,69,2024-01-24 14:47:55,0.0
4803,-426,-359,-89,-1539,43,2024-01-24 14:47:55,0.0
5502,-644,-1030,-29,-1007,10,2024-01-24 14:47:55,0.0
4871,-277,-1349,8,-531,1,2024-01-24 14:47:55,0.0
5016,-471,-1380,73,-102,60,2024-01-24 14:47:55,0.0
4535,-259,-1083,101,69,72,2024-01-24 14:47:55,0.0
4480,-217,-1174,-15,165,20,2024-01-24 14:47:55,0.0
4398,-376,-784,-51,99,54,2024-01-24 14:47:55,0.0
4219,-336,-882,-87,383,-42,2024-01-24 14:47:55,0.0
4080,-363,-599,-66,295,45,2024-01-24 14:47:55,0.0
3961,-378,-604,-118,609,-17,2024-01-24 14:47:55,0.0
3813,-396,-253,-136,425,-4,2024-01-24 14:47:55,0.0
3815,-380,-412,-163,450,-44,2024-01-24 14:47:55,0.0
3603,-468,-181,-173,386,-77,2024-01-24 14:47:55,0.0
3891,-414,-238,-159,383,-83,2024-01-24 14:47:55,0.0
4119,-579,-161,-66,332,-82,2024-01-24 14:47:55,0.0
4031,-319,-12,43,431,-82,2024-01-24 14:47:56,0.0
4208,-218,123,-21,332,-97,2024-01-24 14:47:56,0.0
3865,-355,75,73,111,-80,2024-01-24 14:47:56,0.0
4539,31,-171,24,-62,-6,2024-01-24 14:47:56,0.0
4301,-166,20,-101,145,-43,2024-01-24 14:47:56,0.0
4422,-128,162,-80,29,15,2024-01-24 14:47:56,0.0
4317,-187,162,-65,86,30,2024-01-24 14:47:56,0.0
4386,-122,161,-88,167,61,2024-01-24 14:47:56,0.0
4352,-150,199,-173,49,31,2024-01-24 14:47:56,0.0
4295,-263,272,-150,-6,7,2024-01-24 14:47:56,0.0
4298,-229,212,-90,-35,18,2024-01-24 14:47:56,0.0
4311,-177,243,-72,-52,-3,2024-01-24 14:47:56,0.0
4325,-185,236,-82,-44,-4,2024-01-24 14:47:56,0.0
4305,-231,287,-63,-68,8,2024-01-24 14:47:56,0.0
4386,-192,314,-63,-28,-3,2024-01-24 14:47:56,0.0
4324,-274,347,-66,-93,8,2024-01-24 14:47:56,0.0
4389,-288,338,-12,-13,7,2024-01-24 14:47:56,0.0
4370,-240,393,10,-46,27,2024-01-24 14:47:57,0.0
4295,-174,386,-13,-42,17,2024-01-24 14:47:57,0.0
4416,-189,369,-18,-5,30,2024-01-24 14:47:57,0.0
4293,-175,370,-43,-56,8,2024-01-24 14:47:57,
4354,-191,339,-38,0,24,2024-01-24 14:47:57,0.0
4350,-195,298,-43,-19,26,2024-01-24 14:47:57,0.0
4368,-171,299,-37,-11,23,2024-01-24 14:47:57,0.0
4321,-224,254,-37,-18,15,2024-01-24 14:47:57,0.0
4327,-233,219,-22,-31,23,2024-01-24 14:47:57,0.0
4294,-230,105,-28,-85,28,2024-01-24 14:47:57,0.0
4237,-227,-60,-51,-270,64,2024-01-24 14:47:57,0.0
4406,-299,-187,-43,-282,73,2024-01-24 14:47:57,0.0
4124,-179,-130,-52,-274,53,2024-01-24 14:47:57,0.0
4204,-285,-258,-35,-482,53,2024-01-24 14:47:57,0.0
4049,-314,-400,34,-478,27,2024-01-24 14:47:57,0.0
4175,-467,-258,103,-388,-35,2024-01-24 14:47:57,0.0
3979,32,-145,-4,-599,-23,2024-01-24 14:47:57,0.0
4020,-234,-214,77,-469,86,2024-01-24 14:47:57,0.0
4196,-302,-359,-25,-608,-57,2024-01-24 14:47:58,0.0
3992,-115,-611,-22,-573,24,2024-01-24 14:47:58,0.0
3905,-479,-623,81,-572,208,2024-01-24 14:47:58,0.0
3814,-200,-672,-3,-356,-1,2024-01-24 14:47:58,0.0
4200,-437,-725,-7,-452,123,2024-01-24 14:47:58,0.0
3345,-259,-729,-4,-30,6,2024-01-24 14:48:00,0.0
4535,-217,-953,-166,-144,-16,2024-01-24 14:48:00,0.0
3963,-514,-804,-118,70,62,2024-01-24 14:48:00,0.0
4673,-564,-1304,-28,500,20,2024-01-24 14:48:00,0.0
4663,-323,-936,-122,241,100,2024-01-24 14:48:00,0.0
4252,-492,-1025,-37,766,47,2024-01-24 14:48:00,0.0
5652,-505,-1120,-62,632,49,2024-01-24 14:48:00,0.0
5287,-398,-390,16,984,-7,2024-01-24 14:48:00,0.0
5205,-518,-253,53,1238,-18,2024-01-24 14:48:00,0.0
4086,-294,1517,-33,-133,14,2024-01-24 14:48:00,0.0
4095,-272,1575,-39,-57,10,2024-01-24 14:48:00,0.0
4037,-266,1506,-46,-53,1,2024-01-24 14:48:00,0.0
4028,-282,1540,-42,-77,4,2024-01-24 14:48:00,0.0
4135,-270,1467,-51,-55,8,2024-01-24 14:48:00,0.0
4091,-276,1400,-41,-60,13,2024-01-24 14:48:00,0.0
4037,-298,1429,-41,-98,21,2024-01-24 14:48:00,0.0
4137,-272,1499,-43,-106,13,2024-01-24 14:48:00,0.0
4097,-267,1417,-45,-63,12,2024-01-24 14:48:00,0.0
4066,-280,1424,-45,-101,1,2024-01-24 14:48:00,0.0
4166,-296,1432,-49,-81,5,2024-01-24 14:48:00,0.0
4120,-261,1400,-50,-53,10,2024-01-24 14:48:00,0.0
4071,-271,1314,-40,-46,19,2024-01-24 14:48:00,0.0
4141,-287,1348,-40,-82,26,2024-01-24 14:48:00,0.0
4039,-291,1456,-50,-110,24,2024-01-24 14:48:00,0.0
4162,-270,1390,-37,-86,19,2024-01-24 14:48:00,0.0
4113,-318,1354,-35,-68,27,2024-01-24 14:48:01,0.0
4175,-281,1273,-41,-97,5,2024-01-24 14:48:01,0.0
4019,-361,1330,-46,-244,5,2024-01-24 14:48:01,0.0
4119,-264,1362,-45,-317,-4,2024-01-24 14:48:01,0.0
4126,-284,1313,-45,-230,4,2024-01-24 14:48:01,0.0
4158,-267,1087,-34,-397,-22,2024-01-24 14:48:01,0.0
4101,-217,1023,-31,-408,7,2024-01-24 14:48:01,0.0
4183,-261,1004,-49,-623,-15,2024-01-24 14:48:01,0.0
4145,-269,863,-33,-779,2,2024-01-24 14:48:01,0.0
4213,-274,804,-76,-901,31,2024-01-24 14:48:01,0.0
4169,-173,587,-66,-1407,29,2024-01-24 14:48:01,0.0
4758,-346,280,-110,-1327,42,2024-01-24 14:48:01,0.0
5221,-385,72,-46,-1546,147,2024-01-24 14:48:01,0.0
5687,-489,-1322,-47,-1284,8,2024-01-24 14:48:01,0.0
4571,-343,-1246,6,-780,148,2024-01-24 14:48:01,0.0
5198,-487,-1857,32,-205,41,2024-01-24 14:48:01,0.0
4264,-315,-1166,-30,-96,74,2024-01-24 14:48:01,0.0
4834,-262,-1449,-90,9,0,2024-01-24 14:48:01,0.0
4292,-340,-1053,-73,627,38,2024-01-24 14:48:02,0.0
3721,-338,-831,-72,368,58,2024-01-24 14:48:02,0.0
4209,-384,-990,-61,539,21,2024-01-24 14:48:02,0.0
3697,-504,-635,-3,807,-54,2024-01-24 14:48:02,0.0
3479,-249,-639,-8,481,-87,2024-01-24 14:48:02,0.0
3608,-433,-478,-35,682,-47,2024-01-24 14:48:02,0.0
3646,-315,-505,-32,563,-97,2024-01-24 14:48:02,0.0
3776,-312,-209,-41,427,-40,2024-01-24 14:48:02,0.0
4208,-423,-188,-43,336,-25,2024-01-24 14:48:02,0.0
4001,-149,-9,-100,325,-78,2024-01-24 14:48:02,0.0
4193,-364,-17,-113,7,-6,2024-01-24 14:48:02,0.0
4374,-331,10,-41,102,-77,2024-01-24 14:48:02,0.0
4393,-262,11,50,82,1,2024-01-24 14:48:02,0.0
4370,-67,126,-22,248,10,2024-01-24 14:48:02,0.0
4312,-147,329,-90,220,21,2024-01-24 14:48:02,0.0
4305,-164,349,-128,129,2,2024-01-24 14:48:02,0.0
4267,-247,309,-113,18,-21,2024-01-24 14:48:02,0.0
4280,-164,249,-86,-78,-19,2024-01-24 14:48:03,0.0
4329,-248,231,-78,-78,-10,2024-01-24 14:48:03,0.0
4329,-198,242,-79,-78,-13,2024-01-24 14:48:03,0.0
4305,-265,293,-73,-99,8,2024-01-24 14:48:03,0.0
4378,-234,242,-76,-96,0,2024-01-24 14:48:03,0.0
4370,-206,249,-74,-114,8,2024-01-24 14:48:03,0.0
4369,-284,265,-45,-76,11,2024-01-24 14:48:03,0.0
4374,-213,245,-41,-47,17,2024-01-24 14:48:03,0.0
4328,-260,331,-47,-3,20,2024-01-24 14:48:03,0.0
4310,-226,227,-60,-7,18,2024-01-24 14:48:03,0.0
4302,-265,292,-47,-11,16,2024-01-24 14:48:03,0.0
4342,-264,253,-32,1,20,2024-01-24 14:48:03,0.0
4333,-207,299,-47,19,25,2024-01-24 14:48:03,0.0
4317,-231,301,-71,31,15,2024-01-24 14:48:03,0.0
4380,-239,313,-64,19,19,2024-01-24 14:48:03,0.0
4311,-246,265,-61,-18,13,2024-01-24 14:48:03,0.0
4349,-245,264,-45,-29,29,2024-01-24 14:48:03,0.0
4321,-246,286,-38,-50,21,2024-01-24 14:48:03,0.0
4290,-243,275,-29,-85,35,2024-01-24 14:48:04,0.0
4298,-275,233,-18,-117,41,2024-01-24 14:48:04,0.0
4363,-265,283,-9,-129,42,2024-01-24 14:48:04,
4291,-280,313,9,-99,45,2024-01-24 14:48:04,0.0
4396,-288,289,4,-118,37,2024-01-24 14:48:04,0.0
4312,-221,251,-20,-72,26,2024-01-24 14:48:04,0.0
4312,-339,210,8,-103,40,2024-01-24 14:48:04,0.0
4315,-285,125,15,-106,35,2024-01-24 14:48:04,0.0
4285,-273,95,-5,-146,28,2024-01-24 14:48:04,0.0
4298,-264,70,-35,-134,20,2024-01-24 14:48:04,0.0
4321,-369,28,-32,-236,52,2024-01-24 14:48:04,0.0
4165,-271,-75,-39,-232,37,2024-01-24 14:48:04,0.0
4091,-454,-139,23,-438,74,2024-01-24 14:48:04,0.0
4114,-97,-440,-77,-528,10,2024-01-24 14:48:04,0.0
3567,-523,-406,-7,-585,141,2024-01-24 14:48:04,0.0
3784,-221,-526,49,-725,85,2024-01-24 14:48:04,0.0
3882,-378,-673,77,-659,102,2024-01-24 14:48:04,0.0
3823,-336,-529,-61,-458,8,2024-01-24 14:48:05,0.0
4120,-422,-800,-5,-417,76,2024-01-24 14:48:05,0.0
4291,-467,-907,-18,-420,13,2024-01-24 14:48:05,0.0
3942,-248,-872,33,175,-131,2024-01-24 14:48:05,0.0
4274,-571,-1031,5,-282,-73,2024-01-24 14:48:05,0.0
4322,-204,-1061,-10,0,-78,2024-01-24 14:48:05,0.0
4387,-499,-1122,-111,225,-20,2024-01-24 14:48:05,0.0
4866,-577,-1053,23,319,93,2024-01-24 14:48:05,0.0
4465,-335,-1096,-57,589,70,2024-01-24 14:48:05,0.0
5206,-443,-962,-13,793,-27,2024-01-24 14:48:05,0.0
4976,-323,-198,47,1032,-23,2024-01-24 14:48:05,0.0
5502,-670,-6,120,1195,-62,2024-01-24 14:48:05,0.0
4332,-384,672,90,1584,-47,2024-01-24 14:48:05,0.0
4062,-222,1117,42,1013,-26,2024-01-24 14:48:05,0.0
4145,-298,1198,7,943,-82,2024-01-24 14:48:05,0.0
4164,-201,1131,-34,644,-92,2024-01-24 14:48:05,0.0
3951,-374,1506,-38,507,-13,2024-01-24 14:48:05,0.0
3950,-264,1534,-27,250,-18,2024-01-24 14:48:05,0.0
4159,-268,1402,-22,112,10,2024-01-24 14:48:06,0.0
3956,-248,1568,-20,83,20,2024-01-24 14:48:06,0.0
4017,-299,1576,-48,42,-21,2024-01-24 14:48:06,0.0
4057,-359,1406,-41,-67,6,2024-01-24 14:48:06,0.0
4131,-255,1496,-58,-50,0,2024-01-24 14:48:06,0.0
4076,-272,1477,-66,-58,-10,2024-01-24 14:48:06,0.0
4088,-226,1533,-55,-75,18,2024-01-24 14:48:06,0.0
4088,-274,1457,-76,-62,0,2024-01-24 14:48:06,0.0
4076,-316,1409,-67,-99,6,2024-01-24 14:48:06,0.0
4117,-302,1361,-46,-80,4,2024-01-24 14:48:06,0.0
4150,-313,1366,-44,-81,10,2024-01-24 14:48:06,0.0
4139,-294,1381,-38,-51,15,2024-01-24 14:48:06,0.0
4129,-307,1403,-37,-59,19,2024-01-24 14:48:06,0.0
4138,-307,1353,-38,-74,20,2024-01-24 14:48:06,0.0
4177,-296,1291,-39,-18,13,2024-01-24 14:48:06,0.0
4087,-269,1379,-38,-31,12,2024-01-24 14:48:06,0.0
4126,-278,1420,-46,-50,11,2024-01-24 14:48:06,0.0
4144,-283,1341,-40,-28,13,2024-01-24 14:48:07,0.0
4133,-281,1372,-39,-56,10,2024-01-24 14:48:07,0.0
4121,-271,1326,-44,-59,12,2024-01-24 14:48:07,0.0
4126,-292,1320,-40,-54,8,2024-01-24 14:48:07,0.0
4145,-303,1319,-38,-49,8,2024-01-24 14:48:07,0.0
4111,-287,1353,-38,-16,10,2024-01-24 14:48:07,0.0
4132,-250,1351,-34,-51,10,2024-01-24 14:48:07,0.0
4108,-313,1263,-36,-34,8,2024-01-24 14:48:07,0.0
4149,-294,1339,-41,-49,7,2024-01-24 14:48:07,0.0
4134,-278,1342,-43,-24,5,2024-01-24 14:48:07,0.0
4107,-275,1389,-41,-48,10,2024-01-24 14:48:07,0.0
4117,-277,1299,-42,-80,13,2024-01-24 14:48:07,0.0
4086,-284,1297,-46,-147,6,2024-01-24 14:48:07,0.0
4135,-315,1302,-27,-90,9,2024-01-24 14:48:07,0.0
4118,-274,1254,-23,-273,9,2024-01-24 14:48:07,0.0
4058,-330,1324,-4,-351,34,2024-01-24 14:48:07,0.0
4152,-293,1177,-49,-519,6,2024-01-24 14:48:07,0.0
4044,-265,1164,-35,-486,40,2024-01-24 14:48:07,0.0
4084,-260,966,-63,-908,14,2024-01-24 14:48:08,0.0
4129,-269,686,-83,-1094,9,2024-01-24 14:48:08,0.0
4207,-275,491,-109,-1298,-11,2024-01-24 14:48:08,0.0
4658,-172,483,-130,-1490,-9,2024-01-24 14:48:08,0.0
5071,-378,-49,-100,-1620,34,2024-01-24 14:48:08,0.0
5494,-427,-980,0,-1195,18,2024-01-24 14:48:08,0.0
4802,-377,-1416,-3,-644,-16,2024-01-24 14:48:08,0.0
4646,-419,-1753,74,-342,100,2024-01-24 14:48:08,0.0
4230,-255,-1430,37,-47,6,2024-01-24 14:48:08,0.0
4198,-265,-1434,6,43,28,2024-01-24 14:48:08,0.0
3998,-185,-1249,-96,192,8,2024-01-24 14:48:08,0.0
3845,-292,-1088,-146,188,2,2024-01-24 14:48:08,0.0
3994,-355,-1117,-89,139,4,2024-01-24 14:48:08,0.0
4315,-285,-1190,-57,313,-2,2024-01-24 14:48:08,0.0
4193,-372,-871,-41,437,0,2024-01-24 14:48:08,0.0
4181,-283,-806,-17,501,36,2024-01-24 14:48:08,0.0
4074,-240,-551,-61,461,58,2024-01-24 14:48:08,0.0
4080,-328,-619,-135,477,52,2024-01-24 14:48:09,0.0
4030,-342,-509,-176,503,-4,2024-01-24 14:48:09,0.0
4124,-378,-367,-139,466,-3,2024-01-24 14:48:09,0.0
3980,-289,-262,-148,434,-80,2024-01-24 14:48:09,0.0
4054,-448,-131,-100,403,-28,2024-01-24 14:48:09,0.0
4257,-256,-74,-74,451,-25,2024-01-24 14:48:09,0.0
4035,-382,160,-60,413,-32,2024-01-24 14:48:09,0.0
4019,-425,105,56,231,-49,2024-01-24 14:48:09,0.0
4245,-243,223,141,166,-5,2024-01-24 14:48:09,0.0
4172,-94,132,37,-23,14,2024-01-24 14:48:09,0.0
4392,-193,135,-106,-60,-31,2024-01-24 14:48:09,0.0
4260,-323,252,-100,-55,-28,2024-01-24 14:48:09,0.0
4293,-305,357,14,-22,21,2024-01-24 14:48:09,0.0
4334,-98,245,-52,-13,12,2024-01-24 14:48:09,0.0
4340,-135,328,-180,-58,-5,2024-01-24 14:48:09,0.0
4355,-252,249,-177,11,-22,2024-01-24 14:48:09,
4410,-233,182,-123,34,-2,2024-01-24 14:48:09,0.0
4276,-245,303,-69,-36,24,2024-01-24 14:48:10,0.0
4327,-215,302,-62,-54,10,2024-01-24 14:48:10,0.0
4371,-256,322,-24,-89,16,2024-01-24 14:48:10,0.0
4391,-209,225,-2,0,25,2024-01-24 14:48:10,0.0
4344,-228,260,-19,40,17,2024-01-24 14:48:10,0.0
4348,-202,242,-33,53,15,2024-01-24 14:48:10,0.0
4203,-185,408,-78,-82,16,2024-01-24 14:48:10,0.0
4394,-251,291,-96,-150,5,2024-01-24 14:48:10,0.0
4365,-255,199,-87,-94,11,2024-01-24 14:48:10,0.0
4385,-274,86,-60,-18,30,2024-01-24 14:48:10,0.0
4369,-265,61,-55,-3,32,2024-01-24 14:48:10,0.0
4210,-199,16,-80,-114,27,2024-01-24 14:48:10,0.0
4385,-295,-198,-54,-130,73,2024-01-24 14:48:10,0.0
4145,-243,-56,-51,-200,43,2024-01-24 14:48:10,0.0
4139,-394,-63,-25,-491,53,2024-01-24 14:48:10,0.0
4070,-260,-15,-42,-612,16,2024-01-24 14:48:10,0.0
4514,-402,-176,11,-596,89,2024-01-24 14:48:10,0.0
4281,-339,-221,76,-415,59,2024-01-24 14:48:10,0.0
4281,-297,-166,41,-442,37,2024-01-24 14:48:11,0.0
4484,-446,-421,36,-280,45,2024-01-24 14:48:11,0.0
4012,-392,-394,72,-134,43,2024-01-24 14:48:11,0.0
3487,-275,-519,22,-206,70,2024-01-24 14:48:11,0.0
3880,-308,-460,40,-289,124,2024-01-24 14:48:11,0.0
3806,-266,-530,-77,29,-83,2024-01-24 14:48:11,0.0
3775,-320,-388,-38,-152,80,2024-01-24 14:48:11,0.0
3350,-229,-504,-35,102,18,2024-01-24 14:48:11,0.0
4545,-286,-915,-220,-366,-30,2024-01-24 14:48:11,0.0
3838,-397,-866,-292,-449,-77,2024-01-24 14:48:11,0.0
4690,-479,-1254,-105,-186,-73,2024-01-24 14:48:11,0.0
5001,-189,-1015,-231,-644,-19,2024-01-24 14:48:11,0.0
4297,-476,-1079,-147,416,-7,2024-01-24 14:48:11,0.0
5199,-566,-770,-67,588,92,2024-01-24 14:48:11,0.0
5028,-409,-348,15,1143,31,2024-01-24 14:48:11,0.0
5860,-211,-332,148,951,66,2024-01-24 14:48:11,0.0
4661,-189,96,32,1014,-6,2024-01-24 14:48:11,0.0
3746,-246,656,-43,648,67,2024-01-24 14:48:12,0.0
4740,-447,737,4,867,57,2024-01-24 14:48:12,0.0
4113,-620,941,99,607,-16,2024-01-24 14:48:12,0.0
4265,-655,922,50,721,-78,2024-01-24 14:48:12,0.0
4483,-323,413,43,104,4,2024-01-24 14:48:12,0.0
4277,-277,955,47,722,-2,2024-01-24 14:48:12,0.0
3858,20,1193,15,447,-66,2024-01-24 14:48:12,0.0
4172,-193,1319,1,231,-10,2024-01-24 14:48:12,0.0
3828,-211,1765,-28,180,-56,2024-01-24 14:48:12,0.0
4012,-365,1704,-68,-21,-6,2024-01-24 14:48:12,0.0
3964,-250,1577,-59,-105,37,2024-01-24 14:48:12,0.0
4009,-307,1558,-68,-149,-13,2024-01-24 14:48:12,0.0
4176,-372,1316,-72,-199,-36,2024-01-24 14:48:12,0.0
4141,-281,1310,-47,-185,14,2024-01-24 14:48:12,0.0
4130,-241,1180,-49,-277,1,2024-01-24 14:48:12,0.0
4179,-245,1213,-69,-289,-18,2024-01-24 14:48:12,0.0
4222,-277,1110,-45,-220,-13,2024-01-24 14:48:12,0.0
4219,-234,1120,-52,-172,-5,2024-01-24 14:48:12,0.0
4189,-267,1017,-54,-153,-7,2024-01-24 14:48:13,0.0
4234,-241,974,-60,-99,6,2024-01-24 14:48:13,0.0
4219,-237,1021,-63,-105,8,2024-01-24 14:48:13,0.0
4268,-249,1028,-41,-65,23,2024-01-24 14:48:13,0.0
4264,-289,934,-41,-55,26,2024-01-24 14:48:13,0.0
4251,-281,953,-30,-63,33,2024-01-24 14:48:13,0.0
4265,-273,902,-28,-19,18,2024-01-24 14:48:13,0.0
4245,-279,983,-37,-19,16,2024-01-24 14:48:13,0.0
4227,-241,944,-39,10,15,2024-01-24 14:48:13,0.0
4202,-291,982,-35,-6,11,2024-01-24 14:48:13,0.0
4258,-304,1006,-27,-11,12,2024-01-24 14:48:13,0.0
4223,-295,1043,-26,-15,22,2024-01-24 14:48:13,0.0
4177,-230,1011,-41,-19,17,2024-01-24 14:48:13,0.0
4209,-235,1059,-44,-80,11,2024-01-24 14:48:13,0.0
4173,-303,1041,-47,-120,22,2024-01-24 14:48:13,0.0
4212,-301,958,-49,-174,24,2024-01-24 14:48:13,0.0
4132,-287,1050,-23,-285,10,2024-01-24 14:48:13,0.0
4151,-309,974,-39,-508,3,2024-01-24 14:48:14,0.0
4117,-282,863,-38,-818,11,2024-01-24 14:48:14,0.0
4129,-199,678,-85,-973,-37,2024-01-24 14:48:14,0.0
4144,-209,377,-134,-1477,-64,2024-01-24 14:48:14,0.0
4503,-260,74,-160,-1603,-79,2024-01-24 14:48:14,0.0
4510,-237,-80,-122,-1784,-95,2024-01-24 14:48:14,0.0
5448,-208,-1326,-67,-1513,2,2024-01-24 14:48:14,0.0
4827,-247,-1711,-70,-1071,85,2024-01-24 14:48:14,0.0
4950,-253,-2287,8,-497,63,2024-01-24 14:48:14,0.0
4337,-189,-1993,-9,-25,141,2024-01-24 14:48:14,0.0
4474,-305,-1942,-43,-66,72,2024-01-24 14:48:14,0.0
4283,-322,-1810,35,502,34,2024-01-24 14:48:14,0.0
4070,-162,-1560,7,237,-11,2024-01-24 14:48:14,0.0
3978,-195,-1263,17,568,43,2024-01-24 14:48:14,0.0
3976,-291,-1273,30,569,4,2024-01-24 14:48:14,0.0
3938,-241,-1141,-39,540,-21,2024-01-24 14:48:14,0.0
3835,-449,-953,22,619,48,2024-01-24 14:48:14,0.0
3939,-254,-834,24,631,-57,2024-01-24 14:48:14,0.0
3721,-297,-748,19,767,30,2024-01-24 14:48:15,0.0
3681,-242,-532,-20,668,-36,2024-01-24 14:48:15,0.0
3908,-473,-394,-38,542,-19,2024-01-24 14:48:15,0.0
4196,-203,-275,-38,411,2,2024-01-24 14:48:15,0.0
4126,-226,-153,-205,428,-60,2024-01-24 14:48:15,0.0
3939,-446,73,-120,265,-36,2024-01-24 14:48:15,0.0
4214,-204,-62,-85,206,-32,2024-01-24 14:48:15,0.0
4319,-228,76,-149,151,-17,2024-01-24 14:48:15,0.0
4348,-423,99,-101,85,2,2024-01-24 14:48:15,0.0
4398,-262,292,3,180,33,2024-01-24 14:48:15,0.0
4326,-142,427,-18,133,34,2024-01-24 14:48:15,
4292,-108,358,-111,-26,-7,2024-01-24 14:48:15,0.0
4311,-271,227,-91,-53,22,2024-01-24 14:48:15,0.0
4282,-125,193,-119,-96,20,2024-01-24 14:48:15,0.0
4242,-204,260,-147,-150,11,2024-01-24 14:48:15,0.0
4321,-372,70,-69,-269,-18,2024-01-24 14:48:15,0.0
4374,-231,86,30,-144,2,2024-01-24 14:48:15,0.0
4322,-221,134,37,-86,28,2024-01-24 14:48:16,0.0
4436,-170,213,-14,-85,13,2024-01-24 14:48:16,0.0
4311,-199,151,-30,-105,9,2024-01-24 14:48:16,0.0
4340,-299,127,-17,-118,15,2024-01-24 14:48:16,0.0
4372,-209,100,9,-74,12,2024-01-24 14:48:16,0.0
4367,-225,113,-26,-49,22,2024-01-24 14:48:16,0.0
4310,-276,137,-46,-37,12,2024-01-24 14:48:16,0.0
4474,-290,213,-41,4,19,2024-01-24 14:48:16,0.0
4250,-240,230,-47,18,7,2024-01-24 14:48:16,0.0
4394,-277,165,-65,17,16,2024-01-24 14:48:16,0.0
4332,-296,133,-69,34,12,2024-01-24 14:48:16,0.0
4353,-295,126,-51,28,32,2024-01-24 14:48:16,0.0
4276,-269,140,-48,11,27,2024-01-24 14:48:16,0.0
4326,-303,96,-63,-63,42,2024-01-24 14:48:16,0.0
4335,-302,95,-58,-78,37,2024-01-24 14:48:16,0.0
4270,-314,46,-37,-98,54,2024-01-24 14:48:16,0.0
4328,-284,-50,-28,-141,55,2024-01-24 14:48:16,0.0
4274,-298,-96,-9,-181,82,2024-01-24 14:48:16,0.0
4241,-287,-149,-29,-247,66,2024-01-24 14:48:17,0.0
4087,-377,-193,-13,-398,93,2024-01-24 14:48:17,0.0
4242,-451,-325,40,-522,111,2024-01-24 14:48:17,0.0
3982,-283,-318,133,-541,98,2024-01-24 14:48:17,0.0
3931,-321,-502,124,-612,108,2024-01-24 14:48:17,0.0
3669,-356,-566,186,-667,89,2024-01-24 14:48:17,0.0
3680,-282,-351,155,-413,58,2024-01-24 14:48:17,0.0
4174,-326,-719,-1,-399,14,2024-01-24 14:48:17,0.0
3389,-513,-482,-65,-305,10,2024-01-24 14:48:17,0.0
4119,-427,-902,-74,-237,-104,2024-01-24 14:48:17,0.0
4053,-574,-1002,-105,-132,-105,2024-01-24 14:48:17,0.0
4450,-550,-1146,43,-306,15,2024-01-24 14:48:17,0.0
4444,-215,-1238,-23,-77,-239,2024-01-24 14:48:17,0.0
4849,-605,-1083,91,-1,-3,2024-01-24 14:48:17,0.0
4553,-271,-1239,2,359,81,2024-01-24 14:48:17,0.0
4994,-565,-1224,-139,733,-37,2024-01-24 14:48:17,0.0
5138,-377,-807,-89,951,-152,2024-01-24 14:48:17,0.0
5679,-637,-496,30,1203,-39,2024-01-24 14:48:18,0.0
4502,-310,285,73,1531,-18,2024-01-24 14:48:18,0.0
3709,-194,1216,-57,1195,-70,2024-01-24 14:48:18,0.0
4501,-442,1068,14,926,-38,2024-01-24 14:48:18,0.0
4136,-172,1175,16,1033,-51,2024-01-24 14:48:18,0.0
4157,-299,1091,50,837,30,2024-01-24 14:48:18,0.0
3929,-261,1381,41,379,-76,2024-01-24 14:48:18,0.0
4066,-219,1581,25,496,-55,2024-01-24 14:48:18,0.0
3895,-264,1865,-55,170,-31,2024-01-24 14:48:18,0.0
3965,-190,1788,-33,63,32,2024-01-24 14:48:18,0.0
3750,-89,1826,-42,6,12,2024-01-24 14:48:18,0.0
4069,-205,1580,-61,-71,-14,2024-01-24 14:48:18,0.0
4071,-275,1513,-9,-2,8,2024-01-24 14:48:18,0.0
4039,-253,1452,-34,-125,27,2024-01-24 14:48:18,0.0
4041,-227,1534,-49,-75,-14,2024-01-24 14:48:18,0.0
4040,-218,1626,-53,-82,-23,2024-01-24 14:48:18,0.0
4071,-197,1618,-63,-38,-26,2024-01-24 14:48:18,0.0
4076,-177,1554,-60,35,-24,2024-01-24 14:48:18,0.0
4010,-209,1533,-53,-78,-8,2024-01-24 14:48:19,0.0
4102,-251,1513,-60,-74,3,2024-01-24 14:48:19,0.0
4071,-195,1550,-46,-35,13,2024-01-24 14:48:19,0.0
4027,-188,1545,-46,-34,12,2024-01-24 14:48:19,0.0
4040,-221,1561,-43,-56,28,2024-01-24 14:48:19,0.0
4017,-208,1580,-58,-135,21,2024-01-24 14:48:19,0.0
4060,-196,1474,-48,-171,19,2024-01-24 14:48:19,0.0
4118,-260,1521,-36,-168,31,2024-01-24 14:48:19,0.0
4069,-204,1473,-38,-191,23,2024-01-24 14:48:19,0.0
4119,-254,1401,-18,-241,42,2024-01-24 14:48:19,0.0
4065,-210,1400,-32,-282,37,2024-01-24 14:48:19,0.0
4100,-216,1348,-39,-377,46,2024-01-24 14:48:19,0.0
4043,-252,1302,-34,-527,64,2024-01-24 14:48:19,0.0
4111,-246,1004,-44,-669,69,2024-01-24 14:48:19,0.0
3902,-232,1078,-77,-1032,52,2024-01-24 14:48:19,0.0
4206,-237,603,-93,-1447,59,2024-01-24 14:48:19,0.0
4152,-273,609,-69,-1662,89,2024-01-24 14:48:19,0.0
4679,-222,-83,-146,-1734,127,2024-01-24 14:48:20,0.0
4869,-405,-393,-201,-2038,46,2024-01-24 14:48:20,0.0
5599,-417,-1768,-46,-1675,104,2024-01-24 14:48:20,0.0
4706,-339,-1923,-102,-837,101,2024-01-24 14:48:20,0.0
4621,-486,-2458,-51,-350,127,2024-01-24 14:48:20,0.0
4068,-400,-1878,-50,123,77,2024-01-24 14:48:20,0.0
4347,-372,-1910,-74,296,57,2024-01-24 14:48:20,0.0
3746,-343,-1478,-97,486,31,2024-01-24 14:48:20,0.0
4322,-500,-1567,-116,558,-75,2024-01-24 14:48:20,0.0
3824,-386,-1152,-33,773,-38,2024-01-24 14:48:20,0.0
4505,-455,-1338,-57,609,-18,2024-01-24 14:48:20,0.0
4073,-405,-869,-10,873,-21,2024-01-24 14:48:20,0.0
3891,-339,-587,5,757,-31,2024-01-24 14:48:20,0.0
4067,-327,-383,9,709,-52,2024-01-24 14:48:20,0.0
3734,-299,-402,-39,778,-99,2024-01-24 14:48:20,0.0
3458,-256,-116,-23,677,-63,2024-01-24 14:48:20,0.0
3789,-367,-269,-65,487,-68,2024-01-24 14:48:20,0.0
3864,-151,-195,6,356,-22,2024-01-24 14:48:20,0.0
4321,-459,-111,36,188,7,2024-01-24 14:48:21,0.0
4414,-225,36,41,133,-1,2024-01-24 14:48:21,0.0
4284,-141,157,-45,181,-20,2024-01-24 14:48:21,0.0
4285,-286,265,-71,163,7,2024-01-24 14:48:21,0.0
4336,-311,324,-83,0,5,2024-01-24 14:48:21,0.0
4367,-292,261,-92,81,1,2024-01-24 14:48:21,
4229,-247,565,-118,-7,7,2024-01-24 14:48:21,0.0
4429,-321,357,-138,-10,10,2024-01-24 14:48:21,0.0
4244,-326,458,-92,-2,3,2024-01-24 14:48:21,0.0
4384,-270,401,-81,-49,11,2024-01-24 14:48:21,0.0
4298,-263,271,-105,-32,5,2024-01-24 14:48:21,0.0
4311,-232,414,-96,-6,2,2024-01-24 14:48:21,0.0
4304,-293,305,-106,-117,19,2024-01-24 14:48:21,0.0
4346,-310,237,-71,-183,32,2024-01-24 14:48:21,0.0
4182,-343,169,-36,-212,38,2024-01-24 14:48:21,0.0
4307,-183,38,-65,-325,32,2024-01-24 14:48:21,0.0
4151,-215,241,-114,-413,36,2024-01-24 14:48:21,0.0
4475,-251,-72,-124,-536,30,2024-01-24 14:48:22,0.0
4325,-215,-128,-149,-356,36,2024-01-24 14:48:22,0.0
4198,-409,-126,-89,-515,62,2024-01-24 14:48:22,0.0
4435,-364,-324,-15,-379,58,2024-01-24 14:48:22,0.0
4041,-426,-423,62,-405,94,2024-01-24 14:48:22,0.0
4014,-290,-661,44,-555,77,2024-01-24 14:48:22,0.0
3844,-397,-600,50,-484,124,2024-01-24 14:48:22,0.0
3630,-395,-810,2,-733,61,2024-01-24 14:48:22,0.0
4138,-232,-627,-77,-590,88,2024-01-24 14:48:22,0.0
3885,-618,-797,-98,-113,34,2024-01-24 14:48:22,0.0
4047,-325,-831,-68,-702,71,2024-01-24 14:48:22,0.0
4371,-612,-1119,-91,-211,-1,2024-01-24 14:48:22,0.0
4426,-567,-1121,-9,-293,-42,2024-01-24 14:48:22,0.0
4352,-388,-1338,-22,-350,14,2024-01-24 14:48:22,0.0
4346,-466,-1574,-42,-90,-89,2024-01-24 14:48:22,0.0
4067,-378,-1429,0,-270,17,2024-01-24 14:48:22,0.0
3810,-296,-1452,-101,-210,6,2024-01-24 14:48:22,0.0
3878,-533,-1454,-50,142,-17,2024-01-24 14:48:22,0.0
4060,-413,-1542,-107,-61,-19,2024-01-24 14:48:23,0.0
4086,-437,-1553,-72,421,-39,2024-01-24 14:48:23,0.0
4875,-304,-1614,-4,600,-32,2024-01-24 14:48:23,0.0
4721,-204,-1448,-16,1149,-19,2024-01-24 14:48:23,0.0
5238,-482,-1151,43,1263,-35,2024-01-24 14:48:23,0.0
5088,-443,-393,63,1449,-27,2024-01-24 14:48:23,0.0
4046,-391,412,43,1439,15,2024-01-24 14:48:23,0.0
4310,-372,907,21,993,-18,2024-01-24 14:48:23,0.0
4154,-509,814,34,1144,-79,2024-01-24 14:48:23,0.0
4036,-253,1093,27,615,-8,2024-01-24 14:48:23,0.0
4254,-299,1148,-26,774,-41,2024-01-24 14:48:23,0.0
3707,-234,1500,25,461,-11,2024-01-24 14:48:23,0.0
4370,-244,1304,-32,181,-50,2024-01-24 14:48:23,0.0
3836,-279,1682,-51,377,-44,2024-01-24 14:48:23,0.0
4009,-346,1533,-24,83,24,2024-01-24 14:48:23,0.0
4104,-234,1472,-62,13,-10,2024-01-24 14:48:23,0.0
3931,-246,1551,-65,-33,-1,2024-01-24 14:48:23,0.0
4078,-329,1484,-43,-50,22,2024-01-24 14:48:24,0.0
4065,-273,1453,-36,-107,41,2024-01-24 14:48:24,0.0
4120,-242,1406,-43,-118,30,2024-01-24 14:48:24,0.0
4087,-318,1406,-44,-76,32,2024-01-24 14:48:24,0.0
4071,-309,1471,-43,-143,35,2024-01-24 14:48:24,0.0
4142,-330,1348,-26,-160,34,2024-01-24 14:48:24,0.0
4123,-287,1275,-28,-189,55,2024-01-24 14:48:24,0.0
4106,-280,1339,-20,-172,63,2024-01-24 14:48:24,0.0
4187,-391,1321,-22,-200,65,2024-01-24 14:48:24,0.0
4192,-386,1239,-46,-118,78,2024-01-24 14:48:24,0.0
4174,-308,1161,-70,-135,61,2024-01-24 14:48:24,0.0
4225,-345,1093,-52,-95,75,2024-01-24 14:48:24,0.0
4209,-318,1153,-42,-37,75,2024-01-24 14:48:24,0.0
4253,-367,1120,-8,31,132,2024-01-24 14:48:24,0.0
4124,-426,1292,17,1,145,2024-01-24 14:48:24,0.0
4114,-543,1264,0,92,103,2024-01-24 14:48:24,0.0
4072,-556,1399,-55,-79,45,2024-01-24 14:48:24,0.0
4171,-507,1254,-51,-97,31,2024-01-24 14:48:24,0.0
4092,-472,1196,-51,-139,18,2024-01-24 14:48:25,0.0
4230,-410,1067,-48,-140,15,2024-01-24 14:48:25,0.0
4172,-478,1107,-34,-59,-2,2024-01-24 14:48:25,0.0
4142,-504,1140,-40,-58,5,2024-01-24 14:48:25,0.0
4127,-461,1224,-48,-128,-10,2024-01-24 14:48:25,0.0
4127,-469,1185,-50,-130,-13,2024-01-24 14:48:25,0.0
4090,-455,1169,-40,-361,-13,2024-01-24 14:48:25,0.0
4135,-449,982,-30,-443,19,2024-01-24 14:48:25,0.0
4088,-353,981,-44,-624,31,2024-01-24 14:48:25,0.0
4061,-588,971,-59,-798,28,2024-01-24 14:48:25,0.0
4120,-528,632,-148,-1047,11,2024-01-24 14:48:25,0.0
4098,-460,374,-176,-1365,24,2024-01-24 14:48:25,0.0
4511,-417,-52,-169,-1389,-25,2024-01-24 14:48:25,0.0
4642,-452,-143,-157,-1585,26,2024-01-24 14:48:25,0.0
5258,-449,-818,-310,-1593,-43,2024-01-24 14:48:25,0.0
5123,-663,-1624,-222,-1149,75,2024-01-24 14:48:25,0.0
4672,-571,-2031,-61,-610,29,2024-01-24 14:48:25,0.0
4655,-305,-1853,-38,-80,61,2024-01-24 14:48:26,0.0
4196,-462,-1733,-89,-158,-1,2024-01-24 14:48:26,0.0
4451,-627,-1857,-45,73,-91,2024-01-24 14:48:26,0.0
4382,-565,-1568,37,541,-202,2024-01-24 14:48:26,0.0
3913,-358,-1324,105,383,-233,2024-01-24 14:48:26,0.0
3978,-295,-1326,28,429,-160,2024-01-24 14:48:26,0.0
4076,-262,-1366,14,652,-136,2024-01-24 14:48:26,0.0
3459,-207,-1023,-61,637,-70,2024-01-24 14:48:26,0.0
3728,-119,-987,-122,517,-83,2024-01-24 14:48:26,0.0
3528,-165,-883,-180,736,-101,2024-01-24 14:48:26,0.0
3587,-304,-766,-87,640,-17,2024-01-24 14:48:26,0.0
3729,-121,-401,-149,472,-3,2024-01-24 14:48:26,0.0
4122,-246,-424,-173,386,-55,2024-01-24 14:48:26,0.0
4007,-249,-463,-131,340,-57,2024-01-24 14:48:26,0.0
4452,-335,-411,17,213,22,2024-01-24 14:48:26,0.0
4286,-364,-109,147,174,55,2024-01-24 14:48:26,0.0
4321,-92,10,205,150,44,2024-01-24 14:48:26,0.0
4319,-97,40,92,118,8,2024-01-24 14:48:27,0.0
4352,50,-6,-18,63,2,2024-01-24 14:48:27,
4369,-77,35,-197,40,17,2024-01-24 14:48:27,0.0
4283,-268,149,-232,49,2,2024-01-24 14:48:27,0.0
4325,-214,66,-195,5,26,2024-01-24 14:48:27,0.0
4318,-199,-11,-151,33,20,2024-01-24 14:48:27,0.0
4366,-163,84,-133,21,32,2024-01-24 14:48:27,0.0
4360,-173,113,-127,53,15,2024-01-24 14:48:27,0.0
4421,-194,104,-105,69,18,2024-01-24 14:48:27,0.0
4344,-247,96,-82,-25,2,2024-01-24 14:48:27,0.0
4296,-258,54,-28,-12,10,2024-01-24 14:48:27,0.0
4369,-300,113,14,-17,19,2024-01-24 14:48:27,0.0
4391,-275,81,52,-29,22,2024-01-24 14:48:27,0.0
4378,-209,16,57,12,27,2024-01-24 14:48:27,0.0
4361,-223,60,34,37,22,2024-01-24 14:48:27,0.0
4352,-190,68,3,-32,32,2024-01-24 14:48:27,0.0
4276,-218,65,-21,-16,16,2024-01-24 14:48:27,0.0
4441,-226,21,-9,-6,53,2024-01-24 14:48:27,0.0
4159,-186,128,-19,-3,-10,2024-01-24 14:48:28,0.0
4432,-181,91,-26,-78,28,2024-01-24 14:48:28,0.0
4222,-101,189,-125,-159,18,2024-01-24 14:48:28,0.0
4174,-234,182,-160,-291,100,2024-01-24 14:48:28,0.0
4301,-374,-17,-96,-311,95,2024-01-24 14:48:28,0.0
3886,-422,73,38,-353,73,2024-01-24 14:48:28,0.0
3708,-191,-322,6,-572,0,2024-01-24 14:48:28,0.0
3799,-385,-206,139,-766,155,2024-01-24 14:48:28,0.0
4124,-385,-568,101,-634,-68,2024-01-24 14:48:28,0.0
3495,86,-384,4,-799,55,2024-01-24 14:48:28,0.0
4449,-568,-832,-2,-658,132,2024-01-24 14:48:28,0.0
3642,-179,-615,-153,-573,-26,2024-01-24 14:48:28,0.0
4557,-626,-939,-93,-508,120,2024-01-24 14:48:28,0.0
4106,-312,-983,-30,-351,10,2024-01-24 14:48:28,0.0
4228,-424,-1310,-123,-25,32,2024-01-24 14:48:28,0.0
4371,-413,-1344,-75,-492,-32,2024-01-24 14:48:28,0.0
3959,-146,-1311,-22,206,-49,2024-01-24 14:48:28,0.0
5036,-714,-1422,-84,101,188,2024-01-24 14:48:28,0.0
4135,-351,-1311,36,607,126,2024-01-24 14:48:29,0.0
5552,-412,-1456,27,1016,-69,2024-01-24 14:48:29,0.0
6070,-266,-849,95,1236,-91,2024-01-24 14:48:29,0.0
4784,-480,-221,25,1798,-9,2024-01-24 14:48:29,0.0
3486,-398,995,37,1291,-39,2024-01-24 14:48:29,0.0
4451,-410,845,8,864,-78,2024-01-24 14:48:29,0.0
4076,-507,1129,37,997,-75,2024-01-24 14:48:29,0.0
4176,-356,1015,31,639,-23,2024-01-24 14:48:29,0.0
4002,-188,1253,-36,412,-65,2024-01-24 14:48:29,0.0
4110,-256,1275,-49,392,-83,2024-01-24 14:48:29,0.0
4174,-338,1368,-23,199,-53,2024-01-24 14:48:29,0.0
4009,-180,1410,-45,57,-17,2024-01-24 14:48:29,0.0
4037,-174,1377,-56,21,-23,2024-01-24 14:48:29,0.0
4165,-205,1387,-29,-72,23,2024-01-24 14:48:29,0.0
4114,-261,1374,-73,-108,4,2024-01-24 14:48:29,0.0
4154,-335,1214,-60,-106,40,2024-01-24 14:48:29,0.0
4216,-257,1091,-61,-147,56,2024-01-24 14:48:29,0.0
4115,-242,1228,-47,-191,57,2024-01-24 14:48:30,0.0
4232,-320,1163,-56,-179,43,2024-01-24 14:48:30,0.0
4054,-343,1291,-40,-217,66,2024-01-24 14:48:30,0.0
4167,-338,1100,-31,-211,45,2024-01-24 14:48:30,0.0
4228,-325,1006,-44,-463,56,2024-01-24 14:48:30,0.0
4077,-345,1093,-55,-438,36,2024-01-24 14:48:30,0.0
4237,-333,824,-38,-618,37,2024-01-24 14:48:30,0.0
4152,-322,795,-70,-805,21,2024-01-24 14:48:30,0.0
4109,-289,616,-58,-1040,51,2024-01-24 14:48:30,0.0
4253,-324,293,-94,-1208,36,2024-01-24 14:48:30,0.0
4354,-397,307,-107,-1484,32,2024-01-24 14:48:30,0.0
4633,-369,-141,-79,-1513,90,2024-01-24 14:48:30,0.0
4875,-606,-944,-74,-1745,40,2024-01-24 14:48:30,0.0
5342,-448,-1790,-79,-952,85,2024-01-24 14:48:30,0.0
4642,-448,-2218,8,-456,32,2024-01-24 14:48:30,0.0
4722,-355,-1792,3,57,82,2024-01-24 14:48:30,0.0
4360,-404,-1675,-53,278,8,2024-01-24 14:48:30,0.0
4470,-451,-1540,-35,280,77,2024-01-24 14:48:31,0.0
4287,-365,-1231,-57,457,-31,2024-01-24 14:48:31,0.0
4267,-412,-1034,47,577,-16,2024-01-24 14:48:31,0.0
3977,-454,-883,75,575,-99,2024-01-24 14:48:31,0.0
3952,-426,-801,134,531,-52,2024-01-24 14:48:31,0.0
3858,-497,-688,162,668,-59,2024-01-24 14:48:31,0.0
3875,-342,-529,112,633,-109,2024-01-24 14:48:31,0.0
3719,-313,-451,23,754,-83,2024-01-24 14:48:31,0.0
3793,-433,-390,-85,565,-18,2024-01-24 14:48:31,0.0
3673,-467,-264,-142,547,-84,2024-01-24 14:48:31,0.0
3955,-299,-137,-189,286,-23,2024-01-24 14:48:31,0.0
4303,-540,15,-231,300,-59,2024-01-24 14:48:31,0.0
3962,-354,90,-150,253,-78,2024-01-24 14:48:31,0.0
4419,-362,1,-138,21,-24,2024-01-24 14:48:31,0.0
4344,-247,27,-108,-18,-44,2024-01-24 14:48:31,0.0
4377,-224,143,-132,-37,-53,2024-01-24 14:48:31,0.0
4311,-134,151,-124,-55,-50,2024-01-24 14:48:31,0.0
4338,-163,60,-77,-63,-16,2024-01-24 14:48:31,0.0
4364,-77,106,-79,-127,-29,2024-01-24 14:48:32,0.0
4277,-45,147,-128,-198,-83,2024-01-24 14:48:32,0.0
4374,-14,-4,-173,-247,-92,2024-01-24 14:48:32,0.0
4405,-114,13,-230,-183,-34,2024-01-24 14:48:32,0.0
4421,-138,57,-231,-150,-27,2024-01-24 14:48:32,0.0
4337,-170,24,-275,-92,-56,2024-01-24 14:48:32,0.0
4345,-322,35,-197,-64,1,2024-01-24 14:48:32,0.0
4345,-337,22,-67,-22,21,2024-01-24 14:48:32,0.0
4333,-219,-9,83,38,55,2024-01-24 14:48:32,0.0
4352,-76,71,85,3,6,2024-01-24 14:48:32,0.0
4353,-64,68,-1,49,45,2024-01-24 14:48:32,0.0
4436,-149,-9,-75,167,42,2024-01-24 14:48:32,0.0
4351,-163,205,-108,32,5,2024-01-24 14:48:32,0.0
4290,-179,32,-63,29,31,2024-01-24 14:48:32,
4408,-233,117,-9,22,69,2024-01-24 14:48:32,0.0
4295,-167,97,13,-56,13,2024-01-24 14:48:32,0.0
4410,-184,134,40,-77,23,2024-01-24 14:48:32,0.0
4336,-222,105,65,-8,9,2024-01-24 14:48:33,0.0
4333,-113,161,39,0,11,2024-01-24 14:48:33,0.0
4345,-215,150,-7,-49,11,2024-01-24 14:48:33,0.0
4346,-220,131,-10,8,11,2024-01-24 14:48:33,0.0
4418,-189,174,-15,40,1,2024-01-24 14:48:33,0.0
4299,-204,210,-24,-8,19,2024-01-24 14:48:33,0.0
4350,-282,216,29,5,26,2024-01-24 14:48:33,0.0
4285,-172,204,83,-58,28,2024-01-24 14:48:33,0.0
4381,-193,77,80,-131,41,2024-01-24 14:48:33,0.0
4219,-198,234,99,-4,18,2024-01-24 14:48:33,0.0
4370,-114,8,38,-159,49,2024-01-24 14:48:33,0.0
4311,-168,15,-44,-93,37,2024-01-24 14:48:33,0.0
4062,-105,-59,-83,-227,29,2024-01-24 14:48:33,0.0
4239,-604,-188,107,-256,151,2024-01-24 14:48:33,0.0
3868,-67,-323,70,-251,66,2024-01-24 14:48:33,0.0
3296,-496,-149,70,-481,125,2024-01-24 14:48:33,0.0
3720,-201,-371,73,-807,27,2024-01-24 14:48:33,0.0
3786,-197,-503,11,-592,105,2024-01-24 14:48:33,0.0
4060,-363,-450,-98,-674,122,2024-01-24 14:48:34,0.0
3440,-352,-526,-70,-524,71,2024-01-24 14:48:34,0.0
4421,-516,-724,-222,-218,25,2024-01-24 14:48:34,0.0
4156,-513,-861,-182,-723,170,2024-01-24 14:48:34,0.0
4231,-602,-1059,-136,-118,85,2024-01-24 14:48:34,0.0
5239,-379,-1350,-291,-111,122,2024-01-24 14:48:34,0.0
4611,-711,-1110,-151,559,52,2024-01-24 14:48:34,0.0
5833,-353,-1195,91,1127,-233,2024-01-24 14:48:34,0.0
6079,-310,-440,91,1421,-15,2024-01-24 14:48:34,0.0
4767,-250,417,102,1782,-3,2024-01-24 14:48:34,0.0
3508,-232,1228,-24,1258,-22,2024-01-24 14:48:34,0.0
4187,-426,1369,-45,1118,-42,2024-01-24 14:48:34,0.0
4163,-657,1427,35,908,-8,2024-01-24 14:48:34,0.0
3884,-334,1451,38,676,42,2024-01-24 14:48:34,0.0
4090,-314,1359,-65,203,-41,2024-01-24 14:48:34,0.0
4025,-280,1429,20,168,-32,2024-01-24 14:48:34,0.0
3948,-234,1472,-50,72,-38,2024-01-24 14:48:34,0.0
3975,-358,1564,-58,-159,-21,2024-01-24 14:48:35,0.0
4079,-309,1564,-41,-26,3,2024-01-24 14:48:35,0.0
4006,-275,1507,-77,-129,-4,2024-01-24 14:48:35,0.0
4153,-286,1316,-58,-174,23,2024-01-24 14:48:35,0.0
4120,-279,1342,-73,-173,45,2024-01-24 14:48:35,0.0
4213,-266,1292,-87,-158,26,2024-01-24 14:48:35,0.0
4064,-511,1318,-22,-153,-59,2024-01-24 14:48:35,0.0
4259,-461,1144,-81,-176,-94,2024-01-24 14:48:35,0.0
4133,-325,1229,-21,-57,-5,2024-01-24 14:48:35,0.0
4123,-56,1257,-15,-215,31,2024-01-24 14:48:35,0.0
4225,-125,1188,-59,-200,38,2024-01-24 14:48:35,0.0
4185,-316,1089,-49,-116,52,2024-01-24 14:48:35,0.0
4203,-362,1102,-58,-105,62,2024-01-24 14:48:35,0.0
4213,-352,1073,-50,-120,62,2024-01-24 14:48:35,0.0
4199,-377,1020,-47,-118,35,2024-01-24 14:48:35,0.0
4191,-418,1072,-47,-158,29,2024-01-24 14:48:35,0.0
4185,-358,1097,-44,-112,11,2024-01-24 14:48:35,0.0
4255,-342,1010,-30,-159,7,2024-01-24 14:48:35,0.0
4218,-293,940,-57,-90,10,2024-01-24 14:48:36,0.0
4283,-385,924,-9,-158,5,2024-01-24 14:48:36,0.0
4231,-332,862,-67,-32,8,2024-01-24 14:48:36,0.0
4293,-461,837,-29,-180,5,2024-01-24 14:48:36,0.0
4305,-343,793,-20,-128,0,2024-01-24 14:48:36,0.0
4175,-359,772,-37,-188,-29,2024-01-24 14:48:36,0.0
4063,-309,962,-55,-519,-39,2024-01-24 14:48:36,0.0
4189,-159,786,-64,-511,27,2024-01-24 14:48:36,0.0
4140,-317,816,-43,-836,65,2024-01-24 14:48:36,0.0
4000,-324,575,-45,-1210,45,2024-01-24 14:48:36,0.0
4139,-368,152,-121,-1636,31,2024-01-24 14:48:36,0.0
4418,-287,-63,-176,-2091,45,2024-01-24 14:48:36,0.0
5179,-541,-629,-108,-1913,16,2024-01-24 14:48:36,0.0
5663,-281,-2076,1,-1567,53,2024-01-24 14:48:36,0.0
4566,-622,-2404,29,-485,69,2024-01-24 14:48:36,0.0
4467,-397,-2314,138,-137,55,2024-01-24 14:48:36,0.0
4255,-327,-2032,36,306,-11,2024-01-24 14:48:36,0.0
4400,-459,-1977,40,270,40,2024-01-24 14:48:37,0.0
4251,-291,-1642,-30,613,3,2024-01-24 14:48:37,0.0
4111,-416,-1429,-80,615,-29,2024-01-24 14:48:37,0.0
4104,-448,-1254,-79,752,-84,2024-01-24 14:48:37,0.0
3806,-389,-991,12,831,-15,2024-01-24 14:48:37,0.0
3919,-306,-896,5,830,-50,2024-01-24 14:48:37,0.0
3705,-353,-645,25,802,-18,2024-01-24 14:48:37,0.0
3813,-307,-621,-2,656,-29,2024-01-24 14:48:37,0.0
3802,-374,-465,-63,747,-99,2024-01-24 14:48:37,0.0
3746,-380,-289,-51,758,-29,2024-01-24 14:48:37,0.0
4042,-263,-220,-97,565,-79,2024-01-24 14:48:37,0.0
3869,-399,25,-85,490,-57,2024-01-24 14:48:37,0.0
3963,-422,114,-36,-43,-66,2024-01-24 14:48:37,0.0
4448,-154,-102,-26,-86,-39,2024-01-24 14:48:37,0.0
4208,-274,-83,-121,-210,-49,2024-01-24 14:48:37,0.0
4446,-158,-89,-227,-75,-61,2024-01-24 14:48:37,0.0
4354,-308,104,-200,-6,0,2024-01-24 14:48:37,0.0
4342,-204,89,-161,-37,29,2024-01-24 14:48:37,0.0
4320,-164,42,-194,-24,-1,2024-01-24 14:48:38,0.0
4338,-234,8,-164,-42,20,2024-01-24 14:48:38,0.0
4358,-225,67,-126,-7,7,2024-01-24 14:48:38,0.0
4324,-196,69,-82,-26,16,2024-01-24 14:48:38,0.0
4422,-194,87,-58,-36,18,2024-01-24 14:48:38,0.0
4285,-251,100,-48,-60,15,2024-01-24 14:48:38,0.0
4413,-255,101,-27,-39,20,2024-01-24 14:48:38,0.0
4324,-253,95,-16,-55,27,2024-01-24 14:48:38,0.0
4379,-232,57,-17,-40,33,2024-01-24 14:48:38,
