acceleration_x,acceleration_y,acceleration_z,gyroscope_x,gyroscope_y,gyroscope_z,timestamp,label
3203,-109,-56,-764,817,-333,2024-01-24 15:03:50,0.0
3564,-1262,208,-641,546,97,2024-01-24 15:03:50,0.0
4489,-672,-1417,-504,359,47,2024-01-24 15:03:50,0.0
9123,-1311,-753,-165,121,202,2024-01-24 15:03:50,0.0
5694,-621,1064,105,203,-266,2024-01-24 15:03:50,0.0
4559,164,677,-390,-124,-268,2024-01-24 15:03:50,0.0
3591,-278,18,-321,432,-120,2024-01-24 15:03:51,0.0
1789,-197,413,-86,217,-183,2024-01-24 15:03:51,0.0
1474,72,512,230,88,216,2024-01-24 15:03:51,0.0
3393,-127,404,-85,-168,90,2024-01-24 15:03:51,0.0
4504,402,76,-150,411,-109,2024-01-24 15:03:51,0.0
7142,-2587,-1119,-26,-429,-389,2024-01-24 15:03:51,0.0
7416,-25,973,-260,110,-266,2024-01-24 15:03:53,0.0
4759,-557,1226,-423,-302,427,2024-01-24 15:03:53,0.0
3268,-756,290,-548,-387,347,2024-01-24 15:03:53,0.0
2929,-529,190,-817,-164,338,2024-01-24 15:03:53,0.0
2086,-786,640,-718,827,-140,2024-01-24 15:03:53,0.0
2369,-1079,575,-651,579,-558,2024-01-24 15:03:53,0.0
4697,-1359,451,-250,-217,176,2024-01-24 15:03:53,0.0
5571,-326,-1290,-179,-346,136,2024-01-24 15:03:53,0.0
7999,-480,-184,-149,414,93,2024-01-24 15:03:53,0.0
2699,-741,212,-658,547,-272,2024-01-24 15:03:53,0.0
3720,-1769,42,-513,129,-136,2024-01-24 15:03:53,0.0
4280,57,-801,-138,190,358,2024-01-24 15:03:53,0.0
7647,-638,-1926,-453,-331,326,2024-01-24 15:03:53,0.0
5884,-1812,-60,288,-183,-31,2024-01-24 15:03:53,0.0
5043,780,-10,-192,228,-192,2024-01-24 15:03:53,0.0
5191,-579,-248,-821,55,-49,2024-01-24 15:03:53,0.0
4220,-463,-344,-341,255,-370,2024-01-24 15:03:54,0.0
2108,428,374,-487,444,-173,2024-01-24 15:03:54,0.0
1311,-637,547,46,698,244,2024-01-24 15:03:54,0.0
3294,257,240,-185,-152,107,2024-01-24 15:03:54,0.0
5141,454,-1127,-685,299,-96,2024-01-24 15:03:54,0.0
7777,-3032,-1361,-431,-600,-240,2024-01-24 15:03:54,0.0
6714,-671,839,0,155,59,2024-01-24 15:03:54,0.0
4992,-359,300,-336,-30,36,2024-01-24 15:03:54,0.0
3175,-600,336,-422,-76,304,2024-01-24 15:03:54,0.0
2092,-472,33,-442,-312,501,2024-01-24 15:03:54,0.0
2913,-285,527,-627,393,-130,2024-01-24 15:03:54,0.0
2695,-861,1074,-869,244,-495,2024-01-24 15:03:54,0.0
3961,-1397,67,-698,-233,-7,2024-01-24 15:03:54,0.0
5597,-425,-1614,-566,229,118,2024-01-24 15:03:54,0.0
7919,-511,-999,-487,-254,423,2024-01-24 15:03:54,0.0
5571,-1587,879,-177,-147,-226,2024-01-24 15:03:54,0.0
3738,445,703,-663,154,-287,2024-01-24 15:03:54,0.0
4070,-407,-493,-817,-342,193,2024-01-24 15:03:54,0.0
2310,-262,173,-198,-397,-323,2024-01-24 15:03:55,0.0
2906,-272,409,-30,161,188,2024-01-24 15:03:55,0.0
3230,-162,234,261,521,392,2024-01-24 15:03:55,0.0
4368,529,67,-631,25,-116,2024-01-24 15:03:55,0.0
4457,-928,-1155,-617,114,-117,2024-01-24 15:03:55,0.0
6948,-1682,-1814,-180,-600,-270,2024-01-24 15:03:55,0.0
6040,-65,28,-638,195,-91,2024-01-24 15:03:55,0.0
3864,-1529,-253,-1045,272,141,2024-01-24 15:03:55,0.0
4508,-335,-329,-695,461,-61,2024-01-24 15:03:55,0.0
6878,-513,-269,-362,236,366,2024-01-24 15:03:55,0.0
6333,-50,235,-347,-427,117,2024-01-24 15:03:55,0.0
4251,-168,1039,-841,53,-320,2024-01-24 15:03:55,0.0
4166,-552,450,-793,-120,58,2024-01-24 15:03:55,0.0
2643,227,409,-386,-445,-255,2024-01-24 15:03:56,0.0
2650,163,24,-651,-245,49,2024-01-24 15:03:56,0.0
3901,-685,1034,-65,432,284,2024-01-24 15:03:56,0.0
3797,467,1017,-438,135,64,2024-01-24 15:03:56,0.0
5270,-281,-138,-710,214,-202,2024-01-24 15:03:56,0.0
6365,-1894,-1858,248,-188,-223,2024-01-24 15:03:56,0.0
6288,17,-764,98,-260,-191,2024-01-24 15:03:56,0.0
5138,439,85,-393,-85,295,2024-01-24 15:03:56,0.0
3577,-790,341,-427,-88,368,2024-01-24 15:03:56,0.0
3679,-788,322,-619,-247,502,2024-01-24 15:03:56,0.0
3613,-609,564,-523,238,122,2024-01-24 15:03:56,0.0
2755,-1030,693,-494,447,132,2024-01-24 15:03:56,0.0
6050,-1797,702,353,184,335,2024-01-24 15:03:56,0.0
4504,-304,-415,72,515,326,2024-01-24 15:03:56,0.0
5481,41,-1287,-103,501,455,2024-01-24 15:03:56,0.0
4806,721,-693,-1429,-66,-91,2024-01-24 15:03:56,0.0
4504,-960,-196,-2004,-337,-353,2024-01-24 15:03:56,0.0
3439,-930,134,-1529,-34,-261,2024-01-24 15:03:57,0.0
3492,-1212,459,-895,-162,-439,2024-01-24 15:03:57,0.0
4095,949,-77,-760,429,-315,2024-01-24 15:03:57,0.0
3622,447,753,-1308,-51,23,2024-01-24 15:03:57,0.0
4951,-1497,627,-800,708,-301,2024-01-24 15:03:57,0.0
4938,-1369,982,371,476,20,2024-01-24 15:03:57,0.0
5990,1629,-2426,28,-353,253,2024-01-24 15:03:57,0.0
4362,-6,-851,-734,421,-447,2024-01-24 15:03:57,0.0
4905,-2321,-494,79,-422,-198,2024-01-24 15:03:57,0.0
4669,15,-39,245,401,-130,2024-01-24 15:03:57,0.0
3308,45,457,53,70,441,2024-01-24 15:03:57,0.0
3554,464,9,-493,-24,342,2024-01-24 15:03:57,0.0
2968,-217,604,-884,243,371,2024-01-24 15:03:57,0.0
3969,-1157,713,-1022,193,-3,2024-01-24 15:03:57,0.0
4564,-1419,1194,-314,340,139,2024-01-24 15:03:57,0.0
4904,-617,855,-21,397,537,2024-01-24 15:03:57,0.0
5367,-805,-750,-249,-215,206,2024-01-24 15:03:57,0.0
4434,93,-699,-712,189,639,2024-01-24 15:03:57,0.0
5244,-109,-598,-1611,-164,-220,2024-01-24 15:03:58,0.0
4307,-1662,-107,-1453,30,-324,2024-01-24 15:03:58,0.0
2735,-1110,241,-947,-1,-328,2024-01-24 15:03:58,0.0
4089,10,195,-652,-44,-527,2024-01-24 15:03:58,0.0
3464,-406,551,-524,82,-293,2024-01-24 15:03:58,0.0
4333,-777,1295,54,49,29,2024-01-24 15:03:58,
3986,4,247,-65,-28,57,2024-01-24 15:03:58,0.0
5265,-718,1498,-185,1,-298,2024-01-24 15:03:58,0.0
5632,-180,-365,-315,-336,-535,2024-01-24 15:03:58,0.0
5713,-6,-2254,-208,220,-366,2024-01-24 15:03:58,0.0
4152,-1378,-652,303,213,-130,2024-01-24 15:03:58,0.0
4871,593,-322,20,19,242,2024-01-24 15:03:58,0.0
3612,40,121,-637,-105,488,2024-01-24 15:03:58,0.0
2685,-435,222,-907,-400,310,2024-01-24 15:03:58,0.0
3595,-1152,352,-840,-773,382,2024-01-24 15:03:58,0.0
4001,-885,534,-732,24,24,2024-01-24 15:03:58,0.0
3556,-1011,207,-373,205,-80,2024-01-24 15:03:58,0.0
5833,-1611,891,267,-69,427,2024-01-24 15:03:58,0.0
4987,385,575,-85,973,227,2024-01-24 15:03:59,0.0
5820,-1509,-1126,-573,-62,754,2024-01-24 15:03:59,0.0
4036,-355,-1396,-314,-1,725,2024-01-24 15:03:59,0.0
4818,-70,-448,-1204,-17,-316,2024-01-24 15:03:59,0.0
3455,-1048,-540,-1358,228,-184,2024-01-24 15:03:59,0.0
3378,-1969,279,-816,276,-186,2024-01-24 15:03:59,0.0
3885,342,652,-566,179,-524,2024-01-24 15:03:59,0.0
3474,-790,352,-696,127,-159,2024-01-24 15:03:59,0.0
4294,-421,272,-231,554,-39,2024-01-24 15:03:59,0.0
4939,-374,984,-465,-153,4,2024-01-24 15:03:59,0.0
5164,-704,556,-286,317,-150,2024-01-24 15:03:59,0.0
5869,-23,-1800,-669,-657,-340,2024-01-24 15:03:59,0.0
3838,-1094,-733,-208,-100,1,2024-01-24 15:03:59,0.0
5034,-850,-1081,-269,-420,76,2024-01-24 15:03:59,0.0
4753,-235,-595,-783,-430,103,2024-01-24 15:03:59,0.0
3736,-916,-391,-833,-284,69,2024-01-24 15:03:59,0.0
3688,-627,-557,-698,23,285,2024-01-24 15:03:59,0.0
2560,-462,-334,-864,242,270,2024-01-24 15:04:00,0.0
2359,34,234,-1526,454,183,2024-01-24 15:04:00,0.0
2876,-620,-193,-1222,637,80,2024-01-24 15:04:00,0.0
4465,-1930,-3,-1174,195,-267,2024-01-24 15:04:00,0.0
4262,-1274,308,-651,599,63,2024-01-24 15:04:00,0.0
4466,528,-1567,-1183,660,-94,2024-01-24 15:04:00,0.0
8377,-2316,-873,-647,-404,611,2024-01-24 15:04:00,0.0
5801,-610,-294,-218,-356,-382,2024-01-24 15:04:00,0.0
3969,365,-19,-868,22,-272,2024-01-24 15:04:00,0.0
3397,-261,-26,-973,106,-34,2024-01-24 15:04:00,0.0
1643,-126,211,-500,141,-130,2024-01-24 15:04:00,0.0
2150,-111,91,-182,439,356,2024-01-24 15:04:00,0.0
4029,-480,-17,-367,215,181,2024-01-24 15:04:00,0.0
4490,-341,259,-622,400,8,2024-01-24 15:04:00,0.0
5534,-2251,-998,-92,-566,-408,2024-01-24 15:04:00,0.0
7730,-1202,-845,31,-603,-302,2024-01-24 15:04:00,0.0
6279,-338,-147,-283,315,227,2024-01-24 15:04:00,0.0
3754,-697,184,-104,273,141,2024-01-24 15:04:00,0.0
2601,-699,245,-363,-286,397,2024-01-24 15:04:01,0.0
2766,-376,-315,-460,115,-46,2024-01-24 15:04:01,0.0
2071,-377,452,-772,313,-146,2024-01-24 15:04:01,0.0
2778,-552,122,-982,494,-209,2024-01-24 15:04:01,0.0
3535,-1421,274,-893,106,90,2024-01-24 15:04:01,0.0
6214,144,-1800,-1020,77,218,2024-01-24 15:04:01,0.0
8920,-2171,-780,-463,249,263,2024-01-24 15:04:01,0.0
4800,-785,828,-242,255,-372,2024-01-24 15:04:01,0.0
4709,553,218,-999,140,26,2024-01-24 15:04:01,0.0
2959,-498,160,-819,206,-253,2024-01-24 15:04:01,0.0
2185,-588,203,-376,127,-180,2024-01-24 15:04:01,0.0
2474,-356,164,245,450,82,2024-01-24 15:04:01,0.0
3308,-147,520,177,394,46,2024-01-24 15:04:01,0.0
3957,494,-693,75,113,-185,2024-01-24 15:04:01,0.0
7916,-2867,-1372,-93,-820,-144,2024-01-24 15:04:01,0.0
6498,168,1012,78,339,-155,2024-01-24 15:04:01,0.0
5468,-616,333,-365,-558,299,2024-01-24 15:04:01,0.0
3544,-883,249,-463,-355,291,2024-01-24 15:04:01,0.0
1799,-279,64,-336,-396,554,2024-01-24 15:04:02,0.0
2557,-290,-47,-783,-156,-48,2024-01-24 15:04:02,0.0
2765,-668,-18,-959,519,-153,2024-01-24 15:04:02,0.0
3524,-1861,219,-558,60,84,2024-01-24 15:04:02,0.0
5301,-988,-1157,-240,378,-115,2024-01-24 15:04:02,0.0
7781,-448,-851,-75,85,420,2024-01-24 15:04:02,0.0
6569,-374,-313,-603,-723,-64,2024-01-24 15:04:02,0.0
4438,-597,62,-618,-54,-148,2024-01-24 15:04:02,0.0
3329,-155,17,-646,-38,-19,2024-01-24 15:04:02,0.0
2820,-293,33,-302,259,-128,2024-01-24 15:04:02,0.0
1656,-204,468,58,363,163,2024-01-24 15:04:02,0.0
4292,-94,-385,-80,99,373,2024-01-24 15:04:02,0.0
3664,-329,-123,-342,221,-179,2024-01-24 15:04:02,0.0
4899,-1817,-1183,171,-329,-265,2024-01-24 15:04:02,0.0
8343,-836,-868,-218,-385,-191,2024-01-24 15:04:02,0.0
4990,-758,505,-214,30,11,2024-01-24 15:04:02,0.0
4086,-639,-349,-189,-286,193,2024-01-24 15:04:02,0.0
2938,-97,17,-357,224,352,2024-01-24 15:04:03,0.0
2807,-836,545,-734,417,-162,2024-01-24 15:04:03,0.0
3318,-828,7,-767,523,-337,2024-01-24 15:04:03,0.0
3794,-1556,127,-322,280,145,2024-01-24 15:04:03,0.0
3220,-649,-25,-139,394,21,2024-01-24 15:04:03,0.0
6396,580,-1303,-702,-356,175,2024-01-24 15:04:03,0.0
8117,-1818,-704,-113,-12,301,2024-01-24 15:04:03,0.0
4773,620,577,-356,-73,-185,2024-01-24 15:04:03,0.0
4156,-676,14,-944,-136,118,2024-01-24 15:04:03,0.0
2371,-781,440,-294,-225,-262,2024-01-24 15:04:03,0.0
2161,224,226,-165,-227,-65,2024-01-24 15:04:03,0.0
3214,-471,-102,-70,-166,107,2024-01-24 15:04:03,0.0
4515,-268,166,114,190,79,2024-01-24 15:04:03,0.0
3610,279,-422,-176,80,-158,2024-01-24 15:04:03,0.0
7524,-2100,-1851,-294,-868,-385,2024-01-24 15:04:03,0.0
7496,-859,-495,-37,68,-2,2024-01-24 15:04:03,0.0
4724,-320,78,35,-6,337,2024-01-24 15:04:03,0.0
3643,-340,-356,-437,-31,132,2024-01-24 15:04:03,
3009,-864,-194,-534,146,366,2024-01-24 15:04:04,0.0
2113,-290,233,-560,488,132,2024-01-24 15:04:04,0.0
2415,-655,296,-690,757,-202,2024-01-24 15:04:04,0.0
4170,-1266,166,-660,51,116,2024-01-24 15:04:04,0.0
4199,-739,83,-501,848,177,2024-01-24 15:04:04,0.0
9552,-632,-1732,-534,-917,681,2024-01-24 15:04:04,0.0
6327,-1233,-4,-394,174,-182,2024-01-24 15:04:04,0.0
4045,-377,86,-633,17,-304,2024-01-24 15:04:04,0.0
3769,-491,51,-589,187,58,2024-01-24 15:04:04,0.0
2373,-217,105,-274,82,-323,2024-01-24 15:04:04,0.0
2067,-113,357,-209,172,7,2024-01-24 15:04:04,0.0
2733,-418,563,153,328,89,2024-01-24 15:04:04,0.0
4203,-7,147,-84,26,188,2024-01-24 15:04:04,0.0
4171,104,-677,-296,265,-235,2024-01-24 15:04:04,0.0
8600,-2192,-1109,-727,-926,-213,2024-01-24 15:04:04,0.0
6579,-1037,1047,-159,647,8,2024-01-24 15:04:04,0.0
4599,-584,337,-7,-519,229,2024-01-24 15:04:04,0.0
3522,-507,162,-351,-454,30,2024-01-24 15:04:04,0.0
2742,-1089,45,-303,-185,307,2024-01-24 15:04:05,0.0
2262,-568,341,-201,-49,-128,2024-01-24 15:04:05,0.0
3379,-387,226,-271,61,-281,2024-01-24 15:04:05,0.0
4285,-1545,58,-120,6,110,2024-01-24 15:04:05,0.0
4219,-586,79,-49,2,-59,2024-01-24 15:04:05,0.0
7252,-117,-1797,-427,-321,421,2024-01-24 15:04:05,0.0
7082,-1397,-736,-290,-564,202,2024-01-24 15:04:05,0.0
4023,34,927,-525,170,-227,2024-01-24 15:04:05,0.0
4265,-1045,-527,-687,73,167,2024-01-24 15:04:05,0.0
2143,-847,58,280,-130,-334,2024-01-24 15:04:05,0.0
2039,8,183,422,-176,21,2024-01-24 15:04:05,0.0
3394,-539,152,686,240,285,2024-01-24 15:04:05,0.0
3782,259,-56,241,-186,9,2024-01-24 15:04:05,0.0
3967,-90,-1005,-149,-45,-123,2024-01-24 15:04:05,0.0
7069,-2280,-1324,-212,-491,-125,2024-01-24 15:04:05,0.0
7497,-801,55,-250,-94,3,2024-01-24 15:04:05,0.0
5163,-634,-413,101,-260,253,2024-01-24 15:04:05,0.0
3399,206,-260,-761,13,263,2024-01-24 15:04:06,0.0
2333,-995,80,-881,8,295,2024-01-24 15:04:06,0.0
2441,-699,155,-834,402,-77,2024-01-24 15:04:06,0.0
3404,-90,32,-1227,676,-322,2024-01-24 15:04:06,0.0
3833,-1856,-153,-1209,381,193,2024-01-24 15:04:06,0.0
5888,902,-2349,-1645,520,74,2024-01-24 15:04:06,0.0
7191,-1521,-549,-1388,126,421,2024-01-24 15:04:06,0.0
5235,-226,104,-1506,-222,-237,2024-01-24 15:04:06,0.0
5061,-67,-90,-1301,422,-62,2024-01-24 15:04:06,0.0
2133,-13,-38,-1555,95,-6,2024-01-24 15:04:06,0.0
2610,-901,103,-844,24,211,2024-01-24 15:04:06,0.0
3134,-1348,498,-17,348,319,2024-01-24 15:04:06,0.0
4963,-425,266,123,199,106,2024-01-24 15:04:06,0.0
3406,-376,514,282,308,-133,2024-01-24 15:04:06,0.0
5173,-1803,-1418,1045,-651,-90,2024-01-24 15:04:06,0.0
8289,-342,-761,477,-555,-547,2024-01-24 15:04:06,0.0
4520,-799,455,584,-107,207,2024-01-24 15:04:06,0.0
4212,-93,-98,794,-437,-46,2024-01-24 15:04:06,0.0
2080,89,212,-5,-182,259,2024-01-24 15:04:07,0.0
3178,-1294,741,-5,241,-120,2024-01-24 15:04:07,0.0
2584,-740,360,22,31,-340,2024-01-24 15:04:07,0.0
4783,-997,357,-53,10,13,2024-01-24 15:04:07,0.0
6004,524,-2127,-483,49,201,2024-01-24 15:04:07,0.0
7899,-440,-934,-661,111,331,2024-01-24 15:04:07,0.0
4207,-197,382,-1264,-67,39,2024-01-24 15:04:07,0.0
4988,-662,-457,-1039,-316,180,2024-01-24 15:04:07,0.0
2096,-329,528,-928,195,-177,2024-01-24 15:04:07,0.0
2841,-182,285,-810,106,98,2024-01-24 15:04:07,0.0
3381,-877,453,35,785,280,2024-01-24 15:04:07,0.0
4285,-304,684,-55,-15,48,2024-01-24 15:04:07,0.0
3209,70,-1273,-80,61,-159,2024-01-24 15:04:07,0.0
7766,-2725,-2120,248,-839,-34,2024-01-24 15:04:07,0.0
6288,-479,-48,338,67,-302,2024-01-24 15:04:07,0.0
4616,-456,180,217,-174,342,2024-01-24 15:04:07,0.0
3064,-162,239,-147,43,179,2024-01-24 15:04:07,0.0
2584,-435,145,-436,-13,306,2024-01-24 15:04:08,0.0
3412,-1256,585,-703,361,-288,2024-01-24 15:04:08,0.0
3750,-451,316,-431,-62,-57,2024-01-24 15:04:08,0.0
4122,-1471,322,-188,608,-48,2024-01-24 15:04:08,0.0
6770,1347,-2035,-950,-316,18,2024-01-24 15:04:08,0.0
7084,-1530,-165,-503,506,259,2024-01-24 15:04:08,0.0
4167,-618,695,-433,-17,-290,2024-01-24 15:04:08,0.0
4263,-393,384,-794,88,33,2024-01-24 15:04:08,0.0
1968,-370,531,-262,-290,-128,2024-01-24 15:04:08,0.0
2442,-612,584,240,28,120,2024-01-24 15:04:08,0.0
2884,74,-144,675,403,224,2024-01-24 15:04:08,0.0
4260,209,-190,-150,-112,-94,2024-01-24 15:04:08,0.0
5545,-1491,-847,66,-319,-341,2024-01-24 15:04:08,0.0
8431,-2074,-422,-153,379,-309,2024-01-24 15:04:08,0.0
5417,-72,518,-44,-9,255,2024-01-24 15:04:08,0.0
5158,-893,46,-387,197,219,2024-01-24 15:04:08,0.0
1282,47,71,-596,-145,509,2024-01-24 15:04:08,0.0
2640,-615,638,-1008,-117,169,2024-01-24 15:04:08,0.0
3306,-977,901,-1145,1062,-517,2024-01-24 15:04:09,0.0
2769,-1000,17,-692,-280,-304,2024-01-24 15:04:09,0.0
5694,-1259,-337,-319,592,169,2024-01-24 15:04:09,0.0
9288,1291,-1064,-823,-134,54,2024-01-24 15:04:09,0.0
4879,-602,915,-1159,73,-34,2024-01-24 15:04:09,0.0
5441,-769,519,-1093,-110,-300,2024-01-24 15:04:09,0.0
2916,230,608,-1333,54,-175,2024-01-24 15:04:09,0.0
2969,106,390,-1157,-314,-188,2024-01-24 15:04:09,0.0
2063,-524,403,-742,-219,59,2024-01-24 15:04:09,0.0
3234,-788,662,145,239,515,2024-01-24 15:04:09,0.0
3485,521,-90,-527,-364,145,2024-01-24 15:04:09,0.0
4829,-1566,-2033,-272,-341,-383,2024-01-24 15:04:09,
8447,-1431,-1460,-258,-418,-302,2024-01-24 15:04:09,0.0
5227,155,304,-391,-50,189,2024-01-24 15:04:09,0.0
5426,-834,-566,-710,-152,-17,2024-01-24 15:04:09,0.0
2311,-451,378,-556,147,368,2024-01-24 15:04:09,0.0
2462,-351,161,-618,-33,251,2024-01-24 15:04:09,0.0
3338,-110,196,-1178,493,-295,2024-01-24 15:04:10,0.0
2889,-1383,-54,-1051,-201,-34,2024-01-24 15:04:10,0.0
4218,-1628,-334,-300,687,46,2024-01-24 15:04:10,0.0
6991,1375,-1902,-877,80,264,2024-01-24 15:04:10,0.0
6125,-907,404,-425,470,-87,2024-01-24 15:04:10,0.0
5046,-584,973,-315,295,-299,2024-01-24 15:04:10,0.0
3080,-241,680,-835,-121,-192,2024-01-24 15:04:10,0.0
2971,-543,-50,-190,-495,-36,2024-01-24 15:04:10,0.0
2156,-224,116,116,-129,190,2024-01-24 15:04:10,0.0
4255,-46,1307,402,109,402,2024-01-24 15:04:10,0.0
3533,625,1221,-64,225,100,2024-01-24 15:04:10,0.0
6194,433,-1010,-765,166,-106,2024-01-24 15:04:10,0.0
6973,-3144,-1549,7,-7,-348,2024-01-24 15:04:10,0.0
6976,69,-64,433,-114,-117,2024-01-24 15:04:10,0.0
4799,419,-34,-189,-192,326,2024-01-24 15:04:10,0.0
3121,-302,-257,-676,75,499,2024-01-24 15:04:10,0.0
2983,-780,258,-740,-163,632,2024-01-24 15:04:10,0.0
3111,-745,577,-722,346,214,2024-01-24 15:04:10,0.0
3582,-1821,96,-155,217,45,2024-01-24 15:04:11,0.0
6327,-876,1133,523,292,400,2024-01-24 15:04:11,0.0
5444,-222,-1976,-363,-320,87,2024-01-24 15:04:11,0.0
4070,-67,-938,-540,1305,88,2024-01-24 15:04:11,0.0
4858,55,-673,-2053,-777,-250,2024-01-24 15:04:11,0.0
5088,-1395,-777,-1666,280,-223,2024-01-24 15:04:11,0.0
2412,-611,169,-1575,67,-286,2024-01-24 15:04:11,0.0
3259,-89,532,-1290,-143,-227,2024-01-24 15:04:11,0.0
3958,-345,569,-846,160,-8,2024-01-24 15:04:11,0.0
4188,-394,745,-218,829,-10,2024-01-24 15:04:11,0.0
3921,-491,986,-226,15,7,2024-01-24 15:04:11,0.0
5580,-872,880,53,72,-389,2024-01-24 15:04:11,0.0
7104,485,-2821,-454,-920,-343,2024-01-24 15:04:11,0.0
4720,-1317,-848,-265,325,-23,2024-01-24 15:04:11,0.0
4996,-679,-1096,230,-324,-65,2024-01-24 15:04:11,0.0
3697,482,-702,-319,-97,437,2024-01-24 15:04:11,0.0
2841,-183,-206,-651,-230,274,2024-01-24 15:04:11,0.0
3190,-875,41,-689,-133,451,2024-01-24 15:04:11,0.0
3543,-285,8,-785,273,236,2024-01-24 15:04:12,0.0
3320,-814,310,-732,503,114,2024-01-24 15:04:12,0.0
5788,-2137,431,-89,-15,216,2024-01-24 15:04:12,0.0
4937,377,927,-58,1244,202,2024-01-24 15:04:12,0.0
6192,-1209,-2698,-775,-414,793,2024-01-24 15:04:12,0.0
4646,254,-1404,-669,140,441,2024-01-24 15:04:12,0.0
4993,-709,-938,-1905,-85,-204,2024-01-24 15:04:12,0.0
3271,-1653,-142,-1632,432,-214,2024-01-24 15:04:12,0.0
2187,-1534,196,-537,39,-393,2024-01-24 15:04:12,0.0
3724,864,495,-557,-177,-463,2024-01-24 15:04:15,0.0
3721,-304,441,-492,246,86,2024-01-24 15:04:15,0.0
4773,-1130,162,-9,278,213,2024-01-24 15:04:15,0.0
5750,-14,1218,-431,507,-305,2024-01-24 15:04:15,0.0
4723,-598,799,-347,169,-285,2024-01-24 15:04:15,0.0
5903,-454,-2952,-277,-572,-248,2024-01-24 15:04:15,0.0
4268,-934,-885,-20,392,-336,2024-01-24 15:04:15,0.0
4646,-520,-266,166,140,114,2024-01-24 15:04:15,0.0
3992,50,-294,-228,-47,207,2024-01-24 15:04:15,0.0
4331,-1036,-768,-909,633,70,2024-01-24 15:04:15,0.0
6910,143,-1625,-799,-229,433,2024-01-24 15:04:15,0.0
6008,-916,-221,-266,-44,52,2024-01-24 15:04:15,0.0
4384,-231,283,-210,315,-425,2024-01-24 15:04:15,0.0
3540,-562,94,-825,-176,-118,2024-01-24 15:04:15,0.0
2647,-845,-8,189,-136,-55,2024-01-24 15:04:15,0.0
2312,-283,330,732,61,49,2024-01-24 15:04:15,0.0
3868,-157,530,878,557,428,2024-01-24 15:04:15,0.0
4117,541,336,302,598,-117,2024-01-24 15:04:15,0.0
3637,-1626,-1303,614,-346,-269,2024-01-24 15:04:15,0.0
8284,-2106,-1606,884,-704,-187,2024-01-24 15:04:16,0.0
6150,980,638,-219,190,-100,2024-01-24 15:04:16,0.0
5046,-1818,383,178,-500,218,2024-01-24 15:04:16,0.0
3006,266,3,-250,-21,276,2024-01-24 15:04:16,0.0
1909,-78,361,-643,22,612,2024-01-24 15:04:16,0.0
2435,-1138,732,-769,626,-387,2024-01-24 15:04:16,0.0
3427,-1778,147,-288,337,-448,2024-01-24 15:04:16,0.0
4146,-278,-777,-300,372,222,2024-01-24 15:04:16,0.0
9235,-617,-1468,-449,-789,457,2024-01-24 15:04:16,0.0
6660,-764,825,43,319,-155,2024-01-24 15:04:16,0.0
4194,-117,537,-614,-70,-78,2024-01-24 15:04:16,0.0
3672,-728,350,-534,45,-100,2024-01-24 15:04:16,0.0
1829,-474,139,-35,334,-95,2024-01-24 15:04:16,0.0
1763,-101,223,396,342,302,2024-01-24 15:04:16,0.0
3300,-185,860,266,389,371,2024-01-24 15:04:16,0.0
3787,574,-791,-432,152,-294,2024-01-24 15:04:16,0.0
6399,-3050,-387,57,-842,-191,2024-01-24 15:04:16,0.0
7330,-878,307,378,41,-359,2024-01-24 15:04:16,0.0
4978,4,303,-430,-157,252,2024-01-24 15:04:17,0.0
3141,-481,697,-423,-206,274,2024-01-24 15:04:17,0.0
1965,-132,324,-655,40,400,2024-01-24 15:04:17,0.0
3081,-526,752,-1001,447,-315,2024-01-24 15:04:17,0.0
2919,-1124,-278,-1105,-361,-238,2024-01-24 15:04:17,0.0
4217,-1323,-712,-750,403,105,2024-01-24 15:04:17,0.0
10136,-523,-773,-284,-925,473,2024-01-24 15:04:17,0.0
5441,-1011,752,-404,304,-310,2024-01-24 15:04:17,0.0
3886,187,586,-1145,-53,-9,2024-01-24 15:04:17,0.0
3281,-1524,-33,-443,286,87,2024-01-24 15:04:17,0.0
1703,2,331,397,271,-70,2024-01-24 15:04:17,0.0
3018,100,371,137,271,127,2024-01-24 15:04:17,0.0
4074,57,48,-391,200,-94,2024-01-24 15:04:17,
3558,-714,-826,-86,-469,-328,2024-01-24 15:04:17,0.0
9019,-1405,-1263,15,-780,-234,2024-01-24 15:04:17,0.0
6133,-227,702,-734,348,51,2024-01-24 15:04:17,0.0
3897,-1381,396,223,-218,353,2024-01-24 15:04:17,0.0
3262,368,-45,-264,61,153,2024-01-24 15:04:18,0.0
2546,-225,661,-809,335,364,2024-01-24 15:04:18,0.0
2638,-1488,722,-753,494,-421,2024-01-24 15:04:18,0.0
3588,-1026,235,-571,-406,89,2024-01-24 15:04:18,0.0
4877,-1201,-1657,-348,-28,51,2024-01-24 15:04:18,0.0
8591,-93,-739,-210,-196,428,2024-01-24 15:04:18,0.0
5771,-500,430,-609,-523,-23,2024-01-24 15:04:18,0.0
4891,-372,275,-699,-113,-97,2024-01-24 15:04:18,0.0
3043,-521,152,-710,335,29,2024-01-24 15:04:18,0.0
2055,-366,213,-353,-262,-136,2024-01-24 15:04:18,0.0
2259,-583,-72,247,77,128,2024-01-24 15:04:18,0.0
3328,5,894,459,480,298,2024-01-24 15:04:18,0.0
4843,966,175,-531,231,15,2024-01-24 15:04:18,0.0
4900,-2468,-1482,-120,-822,-358,2024-01-24 15:04:18,0.0
8862,-1834,-1345,395,-382,-275,2024-01-24 15:04:18,0.0
5822,485,871,-353,223,269,2024-01-24 15:04:18,0.0
3979,-405,-176,-186,-143,154,2024-01-24 15:04:18,0.0
2119,-253,-248,-801,-153,460,2024-01-24 15:04:19,0.0
2048,-679,504,-610,210,335,2024-01-24 15:04:19,0.0
2724,-955,283,-931,454,-311,2024-01-24 15:04:19,0.0
4079,-1113,106,-819,1,-135,2024-01-24 15:04:19,0.0
4071,-1001,-627,-466,520,11,2024-01-24 15:04:19,0.0
9460,390,-1322,-689,-543,550,2024-01-24 15:04:19,0.0
6254,-1247,931,-587,-35,-156,2024-01-24 15:04:19,0.0
4279,97,71,-976,-17,-7,2024-01-24 15:04:19,0.0
3335,-1000,578,-692,120,19,2024-01-24 15:04:19,0.0
1975,-40,133,-394,-39,-171,2024-01-24 15:04:19,0.0
2585,-577,154,134,264,172,2024-01-24 15:04:19,0.0
3706,93,574,220,480,155,2024-01-24 15:04:19,0.0
2890,272,-1089,-265,43,-353,2024-01-24 15:04:19,0.0
7460,-2495,-1777,-3,-829,-173,2024-01-24 15:04:19,0.0
7263,-1183,176,-166,291,-354,2024-01-24 15:04:19,0.0
5169,-789,553,-157,84,257,2024-01-24 15:04:19,0.0
3326,84,-64,-407,-95,135,2024-01-24 15:04:19,0.0
2029,-404,252,-792,-20,540,2024-01-24 15:04:19,0.0
2298,-1034,869,-651,615,-129,2024-01-24 15:04:20,0.0
3168,-1219,600,-508,656,-627,2024-01-24 15:04:20,0.0
4841,-1490,149,-187,364,74,2024-01-24 15:04:20,0.0
5751,-23,-944,-125,-497,158,2024-01-24 15:04:20,0.0
8737,-441,-1102,-183,-189,239,2024-01-24 15:04:20,0.0
3715,-235,1422,-681,178,-519,2024-01-24 15:04:20,0.0
3984,-975,203,-699,-777,163,2024-01-24 15:04:20,0.0
2216,-430,373,63,-203,-428,2024-01-24 15:04:20,0.0
2338,579,406,-112,-178,-247,2024-01-24 15:04:20,0.0
3173,-634,677,320,324,336,2024-01-24 15:04:20,0.0
3823,74,32,105,-274,34,2024-01-24 15:04:20,0.0
3998,-348,-1575,129,-533,-385,2024-01-24 15:04:20,0.0
10128,-2623,-1575,81,-1174,-100,2024-01-24 15:04:20,0.0
4756,994,1150,-227,435,259,2024-01-24 15:04:20,0.0
4163,-818,-68,-212,-123,178,2024-01-24 15:04:20,0.0
2594,270,-233,-892,148,365,2024-01-24 15:04:20,0.0
1834,-677,525,-1056,377,315,2024-01-24 15:04:20,0.0
2719,-619,105,-1364,779,-512,2024-01-24 15:04:20,0.0
5121,-1417,-38,-1093,200,172,2024-01-24 15:04:21,0.0
6842,-176,-1866,-850,-228,496,2024-01-24 15:04:21,0.0
7497,-903,212,-254,26,-148,2024-01-24 15:04:21,0.0
4588,-124,733,-442,383,-271,2024-01-24 15:04:21,0.0
3746,-98,150,-563,-129,-158,2024-01-24 15:04:21,0.0
2443,-478,-47,-283,-265,-69,2024-01-24 15:04:21,0.0
1902,-3,152,66,-50,-3,2024-01-24 15:04:21,0.0
2570,149,744,310,132,332,2024-01-24 15:04:21,0.0
4612,475,489,-255,433,273,2024-01-24 15:04:21,0.0
3877,-187,-1539,-469,-53,-401,2024-01-24 15:04:21,0.0
8388,-3241,-1419,-18,-520,57,2024-01-24 15:04:21,0.0
6130,462,760,109,-8,-268,2024-01-24 15:04:21,0.0
5396,-636,-823,-72,-330,220,2024-01-24 15:04:21,0.0
2899,-563,107,-181,224,344,2024-01-24 15:04:21,0.0
1811,-226,24,19,-174,589,2024-01-24 15:04:21,0.0
3074,-512,553,-509,524,-209,2024-01-24 15:04:21,0.0
2912,-1045,275,-428,355,-321,2024-01-24 15:04:21,0.0
3545,-1528,121,76,137,115,2024-01-24 15:04:22,0.0
7588,-184,-1930,-4,-605,96,2024-01-24 15:04:22,0.0
7348,-75,5,84,303,36,2024-01-24 15:04:22,0.0
4492,-180,879,-564,322,-290,2024-01-24 15:04:22,0.0
4224,-489,296,-888,-123,63,2024-01-24 15:04:22,0.0
1988,-729,336,-248,158,-303,2024-01-24 15:04:22,0.0
2380,518,-30,-185,-228,176,2024-01-24 15:04:22,0.0
3327,-314,366,30,384,192,2024-01-24 15:04:22,0.0
3303,283,985,-399,431,-161,2024-01-24 15:04:22,0.0
3733,-72,-233,-520,17,-32,2024-01-24 15:04:22,0.0
6759,-2522,-1014,-70,-805,-132,2024-01-24 15:04:22,0.0
7401,-260,-233,-92,-805,-253,2024-01-24 15:04:22,0.0
5476,-1002,-80,-701,-31,453,2024-01-24 15:04:22,0.0
3816,-1097,423,-174,-113,172,2024-01-24 15:04:22,0.0
2042,-129,31,-369,-339,370,2024-01-24 15:04:22,0.0
2901,-598,58,-722,5,49,2024-01-24 15:04:22,0.0
2952,-646,437,-885,400,-290,2024-01-24 15:04:22,0.0
3550,-1432,239,-677,89,-9,2024-01-24 15:04:22,0.0
3206,-595,-1054,-395,16,-70,2024-01-24 15:04:23,0.0
8644,89,-1752,-476,-219,303,2024-01-24 15:04:23,0.0
6422,-964,16,-283,-82,72,2024-01-24 15:04:23,0.0
4444,12,226,-547,191,-324,2024-01-24 15:04:23,0.0
3448,-525,60,-699,196,25,2024-01-24 15:04:23,0.0
1819,-782,38,-137,21,-339,2024-01-24 15:04:23,0.0
2568,230,-14,300,494,187,2024-01-24 15:04:23,0.0
3661,245,450,145,160,162,2024-01-24 15:04:23,
