acceleration_x,acceleration_y,acceleration_z,gyroscope_x,gyroscope_y,gyroscope_z,timestamp,label
4338,103,-429,-206,-53,28,2024-01-24 14:35:16,0.0
4295,97,-455,-226,-61,21,2024-01-24 14:35:16,0.0
4328,61,-429,-256,-68,25,2024-01-24 14:35:16,0.0
4373,40,-393,-243,-55,27,2024-01-24 14:35:16,0.0
4328,46,-350,-183,-72,25,2024-01-24 14:35:16,0.0
4311,23,-371,-92,-44,26,2024-01-24 14:35:16,0.0
4323,46,-421,-10,-55,9,2024-01-24 14:35:16,0.0
4302,70,-394,73,-60,12,2024-01-24 14:35:16,0.0
4301,118,-408,113,-66,11,2024-01-24 14:35:16,0.0
4360,111,-438,148,-32,-2,2024-01-24 14:35:16,0.0
4368,110,-418,143,-24,-1,2024-01-24 14:35:17,0.0
4342,239,-385,81,47,-12,2024-01-24 14:35:17,0.0
4334,161,-334,19,15,2,2024-01-24 14:35:17,0.0
4363,164,-375,-23,28,8,2024-01-24 14:35:17,0.0
4321,127,-365,-15,45,1,2024-01-24 14:35:17,0.0
4360,90,-391,40,48,13,2024-01-24 14:35:17,0.0
4314,104,-309,87,40,6,2024-01-24 14:35:17,0.0
4370,60,-307,141,19,33,2024-01-24 14:35:17,0.0
4319,95,-292,205,17,44,2024-01-24 14:35:17,0.0
4329,9,-368,280,-14,81,2024-01-24 14:35:17,0.0
4308,37,-397,363,-60,96,2024-01-24 14:35:17,0.0
4360,-115,-319,499,-81,104,2024-01-24 14:35:17,0.0
4330,15,-320,663,-82,82,2024-01-24 14:35:17,0.0
4339,105,-429,732,-115,101,2024-01-24 14:35:17,0.0
4303,111,-507,716,-157,48,2024-01-24 14:35:17,0.0
4313,137,-495,665,-182,25,2024-01-24 14:35:17,0.0
4314,-103,-516,628,-165,19,2024-01-24 14:35:17,0.0
4408,-175,-677,607,-185,16,2024-01-24 14:35:18,0.0
4416,-161,-662,420,-153,28,2024-01-24 14:35:18,0.0
4377,-359,-569,306,-38,40,2024-01-24 14:35:18,0.0
4220,-520,-432,284,-43,-6,2024-01-24 14:35:18,0.0
4312,-399,-466,379,-36,-99,2024-01-24 14:35:18,0.0
4284,-429,-516,368,10,-88,2024-01-24 14:35:18,0.0
4426,-169,-622,191,-25,-63,2024-01-24 14:35:18,0.0
4224,-226,-524,16,-37,-43,2024-01-24 14:35:18,0.0
4335,-271,-523,-21,-6,-25,2024-01-24 14:35:18,0.0
4283,-168,-635,-119,-3,-23,2024-01-24 14:35:18,0.0
4206,-391,-579,-85,10,24,2024-01-24 14:35:18,0.0
4268,39,-577,-110,64,9,2024-01-24 14:35:18,0.0
4541,130,-394,-246,91,-103,2024-01-24 14:35:18,0.0
4389,169,-338,-212,-8,-268,2024-01-24 14:35:18,0.0
4374,380,-338,-102,-35,-220,2024-01-24 14:35:18,0.0
4191,387,-296,31,12,-139,2024-01-24 14:35:18,0.0
4190,591,-408,-15,-65,-58,2024-01-24 14:35:18,0.0
4225,335,-608,-2,-33,33,2024-01-24 14:35:18,0.0
4610,78,-690,64,-7,74,2024-01-24 14:35:19,0.0
4220,92,-240,225,126,39,2024-01-24 14:35:19,0.0
4438,395,-432,204,-4,43,2024-01-24 14:35:19,0.0
4374,58,-483,98,94,-8,2024-01-24 14:35:19,0.0
4261,157,-425,77,67,13,2024-01-24 14:35:19,0.0
4326,94,-453,-22,51,21,2024-01-24 14:35:19,0.0
4276,-122,-429,-18,43,36,2024-01-24 14:35:19,0.0
4263,-57,-461,8,-61,22,2024-01-24 14:35:19,0.0
4307,-67,-462,11,-87,43,2024-01-24 14:35:19,0.0
4323,-135,-450,0,-108,62,2024-01-24 14:35:19,0.0
4477,-124,-499,5,-18,49,2024-01-24 14:35:19,0.0
4332,-71,-266,-7,23,42,2024-01-24 14:35:19,0.0
4308,-129,-240,-3,-41,13,2024-01-24 14:35:19,0.0
4328,-41,-424,5,-32,21,2024-01-24 14:35:19,0.0
4358,-118,-426,-6,-47,13,2024-01-24 14:35:19,0.0
4317,-83,-348,24,-6,6,2024-01-24 14:35:19,0.0
4338,1,-308,22,-45,-7,2024-01-24 14:35:19,0.0
4292,36,-401,-44,-31,-27,2024-01-24 14:35:20,0.0
4347,-81,-397,-9,-21,-17,2024-01-24 14:35:20,0.0
4336,-11,-410,19,36,19,2024-01-24 14:35:20,0.0
4359,5,-294,-41,77,13,2024-01-24 14:35:20,0.0
4311,-60,-299,-69,65,28,2024-01-24 14:35:20,0.0
4342,-136,-281,-15,31,19,2024-01-24 14:35:20,0.0
4310,-66,-268,56,-19,24,2024-01-24 14:35:20,0.0
4347,-10,-387,54,-43,16,2024-01-24 14:35:20,0.0
4322,-6,-399,28,-38,19,2024-01-24 14:35:20,0.0
4348,-3,-319,-2,-76,11,2024-01-24 14:35:20,0.0
4329,42,-261,-31,-80,10,2024-01-24 14:35:20,0.0
4346,-34,-277,-51,-121,4,2024-01-24 14:35:20,0.0
4403,-31,-334,-55,-60,9,2024-01-24 14:35:20,0.0
4316,-46,-351,-47,-36,8,2024-01-24 14:35:20,0.0
4355,-60,-261,-46,-45,11,2024-01-24 14:35:20,0.0
4350,-53,-289,-32,-38,8,2024-01-24 14:35:20,0.0
4348,-41,-337,-6,-62,15,2024-01-24 14:35:20,0.0
4338,-6,-413,-16,-49,11,2024-01-24 14:35:20,0.0
4294,-21,-377,-11,-65,9,2024-01-24 14:35:21,0.0
4335,-49,-366,-20,-50,7,2024-01-24 14:35:21,0.0
4336,-27,-362,-11,-59,2,2024-01-24 14:35:21,0.0
4356,-9,-432,-12,-62,7,2024-01-24 14:35:21,0.0
4324,-9,-436,-28,-60,8,2024-01-24 14:35:21,0.0
4313,-37,-447,-35,-64,15,2024-01-24 14:35:21,0.0
4339,-40,-466,-33,-80,13,2024-01-24 14:35:21,0.0
4314,-74,-454,-6,-84,11,2024-01-24 14:35:21,0.0
4329,-32,-454,1,-81,7,2024-01-24 14:35:21,0.0
4328,-19,-412,-2,-71,2,2024-01-24 14:35:21,0.0
4315,-22,-454,8,-32,2,2024-01-24 14:35:21,0.0
4321,-20,-503,2,-23,8,2024-01-24 14:35:21,0.0
4323,-86,-432,6,-3,15,2024-01-24 14:35:21,0.0
4309,-52,-508,14,-6,12,2024-01-24 14:35:21,0.0
4314,-26,-515,10,-30,12,2024-01-24 14:35:21,0.0
4328,-14,-490,2,-38,18,2024-01-24 14:35:21,0.0
4343,-77,-483,3,-38,11,2024-01-24 14:35:21,0.0
4321,-52,-461,16,-28,9,2024-01-24 14:35:22,0.0
4349,-11,-447,-20,-11,6,2024-01-24 14:35:22,0.0
4349,-46,-464,-42,0,14,2024-01-24 14:35:22,
4321,-28,-480,-51,15,15,2024-01-24 14:35:22,0.0
4314,-42,-435,-54,4,11,2024-01-24 14:35:22,0.0
4287,-48,-437,-55,15,10,2024-01-24 14:35:22,0.0
4322,-91,-456,-52,12,16,2024-01-24 14:35:22,0.0
4325,-19,-449,-44,5,15,2024-01-24 14:35:22,0.0
4290,-63,-380,-58,-15,15,2024-01-24 14:35:22,0.0
4345,-18,-417,-59,-28,11,2024-01-24 14:35:22,0.0
4323,-37,-392,-66,-21,11,2024-01-24 14:35:22,0.0
4333,-37,-379,-73,-38,12,2024-01-24 14:35:22,0.0
4356,-58,-380,-76,-24,9,2024-01-24 14:35:22,0.0
4319,-38,-392,-71,-15,9,2024-01-24 14:35:22,0.0
4330,-65,-378,-71,-53,1,2024-01-24 14:35:22,0.0
4337,-26,-368,-66,-62,4,2024-01-24 14:35:22,0.0
4327,-52,-335,-65,-104,4,2024-01-24 14:35:22,0.0
4369,-46,-373,-54,-86,6,2024-01-24 14:35:23,0.0
4358,-54,-418,-59,-46,11,2024-01-24 14:35:23,0.0
4348,-12,-468,-58,-1,20,2024-01-24 14:35:23,0.0
4350,-55,-427,-66,21,12,2024-01-24 14:35:23,0.0
4296,-59,-481,-50,9,10,2024-01-24 14:35:23,0.0
4317,-65,-463,-24,-26,4,2024-01-24 14:35:23,0.0
4311,-33,-406,-20,-28,4,2024-01-24 14:35:23,0.0
4353,-57,-330,-20,-37,12,2024-01-24 14:35:23,0.0
4347,-54,-453,-14,-7,8,2024-01-24 14:35:23,0.0
4354,-43,-448,-20,0,9,2024-01-24 14:35:23,0.0
4302,-51,-437,-25,-2,16,2024-01-24 14:35:23,0.0
4353,-83,-416,-26,15,9,2024-01-24 14:35:23,0.0
4295,-46,-423,-14,16,15,2024-01-24 14:35:23,0.0
4349,-61,-376,-9,18,12,2024-01-24 14:35:23,0.0
4336,-61,-328,-11,28,8,2024-01-24 14:35:23,0.0
4280,2,-290,-26,-59,6,2024-01-24 14:35:23,0.0
4290,-70,-343,-59,-120,6,2024-01-24 14:35:23,0.0
4381,-54,-387,-55,-93,-1,2024-01-24 14:35:23,0.0
4308,-40,-401,-53,-64,7,2024-01-24 14:35:24,0.0
4311,-82,-364,-58,-56,11,2024-01-24 14:35:24,0.0
4362,-45,-455,-48,-46,13,2024-01-24 14:35:24,0.0
4313,-71,-395,-44,-66,15,2024-01-24 14:35:24,0.0
4349,-28,-473,-45,-45,15,2024-01-24 14:35:24,0.0
4309,-49,-391,-61,-39,13,2024-01-24 14:35:24,0.0
4327,-31,-458,-59,-31,20,2024-01-24 14:35:24,0.0
4358,-59,-457,-67,-12,15,2024-01-24 14:35:24,0.0
4296,-66,-391,-55,-50,21,2024-01-24 14:35:24,0.0
4363,-6,-421,-71,-51,19,2024-01-24 14:35:24,0.0
4299,-51,-417,-89,-41,27,2024-01-24 14:35:24,0.0
4327,-84,-368,-68,-73,19,2024-01-24 14:35:24,0.0
4337,-103,-405,-21,-34,13,2024-01-24 14:35:24,0.0
4338,-102,-472,28,-46,8,2024-01-24 14:35:24,0.0
4323,-98,-458,81,-2,-3,2024-01-24 14:35:24,0.0
4313,-81,-467,107,-15,-3,2024-01-24 14:35:24,0.0
4354,19,-435,83,-12,4,2024-01-24 14:35:24,0.0
4299,25,-434,8,0,14,2024-01-24 14:35:25,0.0
4322,33,-428,-48,28,5,2024-01-24 14:35:25,0.0
4334,-67,-446,-68,10,14,2024-01-24 14:35:25,0.0
4315,-88,-419,-45,-29,4,2024-01-24 14:35:25,0.0
4343,-92,-487,-18,-2,7,2024-01-24 14:35:25,0.0
4319,-55,-419,-15,-13,7,2024-01-24 14:35:25,0.0
4331,-75,-379,-19,4,7,2024-01-24 14:35:25,0.0
4340,-82,-356,-19,-24,12,2024-01-24 14:35:25,0.0
4370,-82,-438,-48,1,19,2024-01-24 14:35:25,0.0
4339,-37,-410,-61,-5,16,2024-01-24 14:35:25,0.0
4331,-29,-483,-79,9,15,2024-01-24 14:35:25,0.0
4311,-87,-390,-74,-24,10,2024-01-24 14:35:25,0.0
4321,-48,-410,-55,-18,6,2024-01-24 14:35:25,0.0
4318,-103,-316,-47,-17,8,2024-01-24 14:35:25,0.0
4357,-94,-367,-40,-25,8,2024-01-24 14:35:25,0.0
4298,-83,-290,-40,-32,3,2024-01-24 14:35:25,0.0
4383,-81,-355,-34,-47,12,2024-01-24 14:35:25,0.0
4268,-38,-373,-60,-59,5,2024-01-24 14:35:25,0.0
4341,-112,-394,-56,-40,18,2024-01-24 14:35:26,0.0
4338,-47,-359,-47,-71,16,2024-01-24 14:35:26,0.0
4371,-4,-388,-43,-85,14,2024-01-24 14:35:26,0.0
4319,-98,-360,-70,-70,8,2024-01-24 14:35:26,0.0
4350,-61,-389,-65,-70,17,2024-01-24 14:35:26,0.0
4316,-30,-364,-72,-72,-1,2024-01-24 14:35:26,0.0
4295,-56,-432,-59,-130,9,2024-01-24 14:35:26,0.0
4315,-110,-457,-26,-174,3,2024-01-24 14:35:26,0.0
4385,-49,-489,1,-42,12,2024-01-24 14:35:26,0.0
4279,-77,-408,8,-28,8,2024-01-24 14:35:26,0.0
4326,-114,-391,54,-63,19,2024-01-24 14:35:26,0.0
4261,-250,-440,161,-97,2,2024-01-24 14:35:26,0.0
4330,-330,-519,302,-105,14,2024-01-24 14:35:26,0.0
4300,-329,-573,406,-61,17,2024-01-24 14:35:26,0.0
4331,-132,-550,418,-96,-30,2024-01-24 14:35:26,0.0
4287,-202,-633,409,-54,-24,2024-01-24 14:35:26,0.0
4264,-113,-660,352,-93,-37,2024-01-24 14:35:26,0.0
4309,-125,-611,259,-110,-19,2024-01-24 14:35:27,0.0
4270,-148,-678,160,-99,-33,2024-01-24 14:35:27,0.0
4277,-168,-665,94,-91,-3,2024-01-24 14:35:27,0.0
4320,-182,-661,32,-41,19,2024-01-24 14:35:27,0.0
4289,-156,-676,-48,-16,1,2024-01-24 14:35:27,0.0
4261,-159,-633,-56,-51,18,2024-01-24 14:35:27,0.0
4331,-193,-656,-53,-41,8,2024-01-24 14:35:27,0.0
4319,-77,-629,-77,-38,16,2024-01-24 14:35:27,0.0
4291,-105,-642,-131,-30,25,2024-01-24 14:35:27,0.0
4313,-98,-659,-197,-37,35,2024-01-24 14:35:27,0.0
4309,91,-674,-285,-15,-7,2024-01-24 14:35:27,0.0
4403,149,-602,-293,-75,-10,2024-01-24 14:35:27,0.0
4382,111,-669,-287,-39,-51,2024-01-24 14:35:27,0.0
4488,249,-739,-290,-4,-110,2024-01-24 14:35:27,0.0
4300,230,-693,-312,-15,-217,2024-01-24 14:35:27,0.0
4178,160,-592,-162,30,-117,2024-01-24 14:35:27,
4253,233,-533,-60,63,-76,2024-01-24 14:35:27,0.0
4342,350,-524,-18,32,-70,2024-01-24 14:35:28,0.0
4312,197,-408,97,-13,-35,2024-01-24 14:35:28,0.0
4285,664,-452,44,43,-49,2024-01-24 14:35:28,0.0
4261,407,-414,21,42,-4,2024-01-24 14:35:28,0.0
4211,435,-467,19,-105,22,2024-01-24 14:35:28,0.0
4472,224,-687,-51,-1,-4,2024-01-24 14:35:28,0.0
4162,-32,-630,34,5,-8,2024-01-24 14:35:28,0.0
4213,71,-595,123,-90,19,2024-01-24 14:35:28,0.0
4354,4,-646,171,-6,67,2024-01-24 14:35:28,0.0
4159,83,-718,96,-6,40,2024-01-24 14:35:28,0.0
4324,-22,-705,67,-96,31,2024-01-24 14:35:28,0.0
4347,-114,-589,86,-4,65,2024-01-24 14:35:28,0.0
4297,-238,-631,111,-25,78,2024-01-24 14:35:28,0.0
4433,-182,-605,153,78,79,2024-01-24 14:35:28,0.0
4484,-129,-399,94,104,9,2024-01-24 14:35:28,0.0
4232,-225,-463,128,-2,53,2024-01-24 14:35:28,0.0
4276,-242,-432,80,-62,48,2024-01-24 14:35:28,0.0
4322,-108,-464,-37,-105,16,2024-01-24 14:35:28,0.0
4320,-224,-528,-117,-111,13,2024-01-24 14:35:29,0.0
4372,-371,-549,-69,-50,24,2024-01-24 14:35:29,0.0
4374,-190,-547,-47,-80,-21,2024-01-24 14:35:29,0.0
4308,-33,-604,-95,53,38,2024-01-24 14:35:29,0.0
4117,15,-535,-223,-28,54,2024-01-24 14:35:29,0.0
4366,-180,-556,-149,-62,40,2024-01-24 14:35:29,0.0
4305,-17,-572,-138,-15,3,2024-01-24 14:35:29,0.0
4266,10,-552,-131,-61,31,2024-01-24 14:35:29,0.0
4358,44,-616,-125,16,17,2024-01-24 14:35:29,0.0
4224,-103,-557,-100,-79,39,2024-01-24 14:35:29,0.0
4339,103,-611,-120,-58,1,2024-01-24 14:35:29,0.0
4250,-165,-527,-92,-62,20,2024-01-24 14:35:29,0.0
4388,135,-644,-92,-16,8,2024-01-24 14:35:29,0.0
4252,-66,-637,-109,65,20,2024-01-24 14:35:29,0.0
4328,33,-618,-152,29,22,2024-01-24 14:35:29,0.0
4309,-8,-508,-129,38,42,2024-01-24 14:35:29,0.0
4276,86,-517,-167,27,35,2024-01-24 14:35:29,0.0
4279,-11,-470,-125,-12,27,2024-01-24 14:35:30,0.0
4275,16,-495,-73,-2,10,2024-01-24 14:35:30,0.0
4331,4,-560,2,-65,-7,2024-01-24 14:35:30,0.0
4370,128,-602,30,-35,-1,2024-01-24 14:35:30,0.0
4400,129,-549,-71,-19,-15,2024-01-24 14:35:30,0.0
4267,93,-510,-136,3,-2,2024-01-24 14:35:30,0.0
4311,100,-410,-135,-6,-13,2024-01-24 14:35:30,0.0
4345,-62,-473,-68,-10,-7,2024-01-24 14:35:30,0.0
4350,6,-418,9,-1,-22,2024-01-24 14:35:30,0.0
4323,38,-394,19,35,-3,2024-01-24 14:35:30,0.0
4339,7,-410,-30,-30,13,2024-01-24 14:35:30,0.0
4235,19,-576,-25,-82,12,2024-01-24 14:35:30,0.0
4292,54,-637,-128,-68,-32,2024-01-24 14:35:30,0.0
4180,259,-536,-177,-43,28,2024-01-24 14:35:30,0.0
4319,-326,-507,-100,53,-14,2024-01-24 14:35:30,0.0
4241,22,-381,-8,-18,-7,2024-01-24 14:35:30,0.0
4418,-103,-570,23,39,26,2024-01-24 14:35:30,0.0
4268,-91,-412,134,54,-2,2024-01-24 14:35:30,0.0
4345,339,-413,32,-108,-5,2024-01-24 14:35:31,0.0
4241,-54,-501,95,-174,20,2024-01-24 14:35:31,0.0
4254,50,-449,-25,-164,-13,2024-01-24 14:35:31,0.0
4313,7,-512,-8,-143,30,2024-01-24 14:35:31,0.0
4395,60,-591,-91,-114,-35,2024-01-24 14:35:31,0.0
4355,-6,-487,-46,-66,57,2024-01-24 14:35:31,0.0
4282,-17,-490,-7,-84,43,2024-01-24 14:35:31,0.0
4261,87,-495,-63,-104,-37,2024-01-24 14:35:31,0.0
4405,17,-470,-67,-96,5,2024-01-24 14:35:31,0.0
4447,-51,-494,-41,-75,12,2024-01-24 14:35:31,0.0
4352,-27,-555,-63,2,-7,2024-01-24 14:35:31,0.0
4346,-16,-531,-40,-19,0,2024-01-24 14:35:31,0.0
4224,-104,-549,-7,-11,-9,2024-01-24 14:35:31,0.0
4284,-122,-601,-22,4,3,2024-01-24 14:35:31,0.0
4302,89,-539,-6,-90,20,2024-01-24 14:35:31,0.0
4341,-35,-577,-32,-101,23,2024-01-24 14:35:31,0.0
4315,44,-621,-30,-115,25,2024-01-24 14:35:31,0.0
4291,32,-605,-19,-77,9,2024-01-24 14:35:32,0.0
4362,62,-627,-33,-91,-11,2024-01-24 14:35:32,0.0
4274,109,-656,-133,-93,5,2024-01-24 14:35:32,0.0
4296,60,-675,-139,-21,16,2024-01-24 14:35:32,0.0
4290,48,-668,-148,-1,14,2024-01-24 14:35:32,0.0
4299,22,-692,-145,57,10,2024-01-24 14:35:32,0.0
4287,68,-676,-124,55,9,2024-01-24 14:35:32,0.0
4275,16,-623,-112,74,13,2024-01-24 14:35:32,0.0
4284,-4,-656,-51,-11,18,2024-01-24 14:35:32,0.0
4274,19,-723,-9,-79,16,2024-01-24 14:35:32,0.0
4298,61,-655,5,-107,26,2024-01-24 14:35:32,0.0
4270,27,-610,2,-103,31,2024-01-24 14:35:32,0.0
4351,22,-638,11,-97,22,2024-01-24 14:35:32,0.0
4320,49,-648,6,-61,10,2024-01-24 14:35:32,0.0
4295,117,-605,-44,-10,14,2024-01-24 14:35:32,0.0
4288,47,-630,-58,-39,35,2024-01-24 14:35:32,0.0
4212,-161,-720,-34,-71,13,2024-01-24 14:35:32,0.0
4333,228,-611,-25,124,16,2024-01-24 14:35:32,0.0
4235,-162,-713,-53,45,-15,2024-01-24 14:35:33,0.0
4284,7,-543,4,-17,-8,2024-01-24 14:35:33,0.0
4318,53,-692,-28,5,16,2024-01-24 14:35:33,0.0
4287,-56,-598,-39,-67,3,2024-01-24 14:35:33,0.0
4321,-25,-617,-2,-47,16,2024-01-24 14:35:33,0.0
4249,78,-567,-15,-74,19,2024-01-24 14:35:33,0.0
4337,59,-664,-64,-57,16,2024-01-24 14:35:33,0.0
4303,29,-576,-144,-67,26,2024-01-24 14:35:33,0.0
4306,66,-656,-169,-43,30,2024-01-24 14:35:33,0.0
4306,-48,-649,-155,-44,19,2024-01-24 14:35:33,0.0
4341,-76,-630,-93,-40,14,2024-01-24 14:35:33,
4362,-30,-693,-20,35,45,2024-01-24 14:35:33,0.0
4248,51,-637,-82,-2,13,2024-01-24 14:35:33,0.0
4244,157,-642,-172,-16,12,2024-01-24 14:35:33,0.0
4319,-203,-708,-129,-44,17,2024-01-24 14:35:33,0.0
4365,120,-649,-81,-42,3,2024-01-24 14:35:33,0.0
4268,-277,-592,4,-20,24,2024-01-24 14:35:33,0.0
4311,109,-625,128,-27,-7,2024-01-24 14:35:34,0.0
4333,-38,-618,88,22,3,2024-01-24 14:35:34,0.0
4238,94,-620,36,25,6,2024-01-24 14:35:34,0.0
4275,98,-734,48,-14,16,2024-01-24 14:35:34,0.0
4362,-7,-599,29,43,-17,2024-01-24 14:35:34,0.0
4337,-67,-579,3,7,-14,2024-01-24 14:35:34,0.0
4313,-11,-632,30,-26,31,2024-01-24 14:35:34,0.0
4352,151,-670,-60,-4,-6,2024-01-24 14:35:34,0.0
4269,-59,-539,-93,-29,18,2024-01-24 14:35:34,0.0
4262,34,-668,-105,-32,16,2024-01-24 14:35:34,0.0
4261,-14,-642,-97,-23,33,2024-01-24 14:35:34,0.0
4280,-33,-679,-78,-39,17,2024-01-24 14:35:34,0.0
4306,-46,-569,-103,-52,42,2024-01-24 14:35:34,0.0
4353,184,-628,-180,-37,23,2024-01-24 14:35:34,0.0
4392,-74,-690,-276,5,10,2024-01-24 14:35:34,0.0
4098,-17,-504,-190,-101,43,2024-01-24 14:35:34,0.0
4372,-128,-628,-103,-124,38,2024-01-24 14:35:34,0.0
4287,-167,-390,-23,-108,33,2024-01-24 14:35:34,0.0
4145,137,-660,60,-206,-16,2024-01-24 14:35:35,0.0
4508,-177,-649,16,-207,54,2024-01-24 14:35:35,0.0
4230,49,-703,41,-55,36,2024-01-24 14:35:35,0.0
4272,-29,-678,39,-128,35,2024-01-24 14:35:35,0.0
4304,-112,-793,134,-75,-20,2024-01-24 14:35:35,0.0
4323,62,-623,228,-3,-88,2024-01-24 14:35:35,0.0
4083,38,-822,190,-111,-81,2024-01-24 14:35:35,0.0
4439,32,-820,105,-12,-47,2024-01-24 14:35:35,0.0
4329,134,-845,-84,42,-4,2024-01-24 14:35:35,0.0
4260,-58,-760,-216,73,10,2024-01-24 14:35:35,0.0
4251,-70,-805,-176,60,30,2024-01-24 14:35:35,0.0
4199,4,-789,-141,-35,29,2024-01-24 14:35:35,0.0
4295,-60,-703,-134,-89,9,2024-01-24 14:35:35,0.0
4282,-77,-703,-101,-44,1,2024-01-24 14:35:35,0.0
4298,-112,-809,-28,-44,5,2024-01-24 14:35:35,0.0
4280,-35,-704,-6,22,0,2024-01-24 14:35:35,0.0
4335,-44,-749,31,-12,-1,2024-01-24 14:35:35,0.0
4272,-41,-707,59,10,0,2024-01-24 14:35:36,0.0
4290,85,-636,67,-15,5,2024-01-24 14:35:36,0.0
4317,-155,-770,87,99,-5,2024-01-24 14:35:36,0.0
4245,0,-815,105,109,-25,2024-01-24 14:35:36,0.0
4315,58,-704,91,121,7,2024-01-24 14:35:36,0.0
4228,8,-568,18,59,-6,2024-01-24 14:35:36,0.0
4359,25,-683,-33,-6,3,2024-01-24 14:35:36,0.0
4322,5,-622,-64,-18,15,2024-01-24 14:35:36,0.0
4312,1,-599,-100,-15,9,2024-01-24 14:35:36,0.0
4313,-22,-585,-110,-32,17,2024-01-24 14:35:36,0.0
4316,-25,-588,-111,-38,19,2024-01-24 14:35:36,0.0
4311,15,-625,-114,-44,19,2024-01-24 14:35:36,0.0
4309,-8,-565,-100,-8,7,2024-01-24 14:35:36,0.0
4333,4,-600,-79,-6,17,2024-01-24 14:35:36,0.0
4270,8,-562,-55,-4,5,2024-01-24 14:35:36,0.0
4284,10,-602,-31,-15,11,2024-01-24 14:35:36,0.0
4317,-61,-605,-10,-48,-8,2024-01-24 14:35:36,0.0
4411,0,-659,16,-22,13,2024-01-24 14:35:37,0.0
4270,56,-535,-30,-8,13,2024-01-24 14:35:37,0.0
4316,51,-526,-82,-68,6,2024-01-24 14:35:37,0.0
4298,-26,-621,-83,-93,11,2024-01-24 14:35:37,0.0
4337,-25,-612,-67,-85,11,2024-01-24 14:35:37,0.0
4337,29,-597,-87,-91,3,2024-01-24 14:35:37,0.0
4305,71,-595,-100,-71,22,2024-01-24 14:35:37,0.0
4314,-15,-648,-99,-54,-3,2024-01-24 14:35:37,0.0
4367,4,-716,-77,13,5,2024-01-24 14:35:37,0.0
4297,-18,-672,-63,36,9,2024-01-24 14:35:37,0.0
4308,-5,-608,-69,45,3,2024-01-24 14:35:37,0.0
4288,-16,-599,-52,-1,6,2024-01-24 14:35:37,0.0
4262,15,-622,-35,-39,5,2024-01-24 14:35:37,0.0
4304,-17,-605,-34,-54,10,2024-01-24 14:35:37,0.0
4303,30,-622,-19,-67,11,2024-01-24 14:35:37,0.0
4312,0,-635,-15,-51,11,2024-01-24 14:35:37,0.0
4320,32,-646,-17,-38,12,2024-01-24 14:35:37,0.0
4281,-12,-616,-16,-54,10,2024-01-24 14:35:37,0.0
4320,7,-636,-22,-37,7,2024-01-24 14:35:38,0.0
4309,32,-650,-7,16,21,2024-01-24 14:35:38,0.0
4258,19,-635,7,-9,33,2024-01-24 14:35:38,0.0
4336,-6,-587,11,2,5,2024-01-24 14:35:38,0.0
4285,-13,-589,26,-41,-3,2024-01-24 14:35:38,0.0
4355,39,-624,45,-1,1,2024-01-24 14:35:38,0.0
4247,-3,-547,15,-1,1,2024-01-24 14:35:38,0.0
4331,1,-560,-13,-2,6,2024-01-24 14:35:38,0.0
4285,27,-560,-46,-26,3,2024-01-24 14:35:38,0.0
4320,27,-522,-79,-17,1,2024-01-24 14:35:38,0.0
4282,19,-535,-111,-17,7,2024-01-24 14:35:38,0.0
4335,54,-571,-134,-29,4,2024-01-24 14:35:38,0.0
4314,5,-560,-128,-38,11,2024-01-24 14:35:38,0.0
4296,22,-552,-126,-17,-2,2024-01-24 14:35:38,0.0
4314,5,-542,-112,-58,6,2024-01-24 14:35:38,0.0
4313,1,-594,-96,-35,2,2024-01-24 14:35:38,0.0
4333,38,-575,-79,-32,14,2024-01-24 14:35:38,0.0
4325,28,-595,-106,-22,14,2024-01-24 14:35:39,0.0
4405,6,-576,-100,38,13,2024-01-24 14:35:39,0.0
4272,-41,-493,-71,85,6,2024-01-24 14:35:39,0.0
4305,75,-448,-61,22,13,2024-01-24 14:35:39,0.0
4258,28,-532,-74,-14,14,2024-01-24 14:35:39,0.0
4343,33,-546,-64,-27,15,2024-01-24 14:35:39,0.0
4310,38,-593,-55,-29,6,2024-01-24 14:35:39,
4331,16,-581,-44,-34,14,2024-01-24 14:35:39,0.0
4299,11,-569,-34,-30,9,2024-01-24 14:35:39,0.0
4326,24,-602,-31,-41,2,2024-01-24 14:35:39,0.0
4276,57,-614,-35,-63,9,2024-01-24 14:35:39,0.0
4296,14,-652,-25,-64,8,2024-01-24 14:35:39,0.0
4302,37,-636,-11,-63,9,2024-01-24 14:35:39,0.0
4343,17,-608,-16,-74,10,2024-01-24 14:35:39,0.0
4281,42,-629,-23,-88,9,2024-01-24 14:35:39,0.0
4334,16,-667,-34,-98,16,2024-01-24 14:35:39,0.0
4324,16,-626,-42,-81,10,2024-01-24 14:35:39,0.0
4324,55,-619,-29,-58,13,2024-01-24 14:35:39,0.0
4326,45,-628,-41,-57,13,2024-01-24 14:35:40,0.0
4299,51,-619,-51,-56,15,2024-01-24 14:35:40,0.0
4281,37,-662,-53,-52,12,2024-01-24 14:35:40,0.0
4296,-3,-661,-38,-72,11,2024-01-24 14:35:40,0.0
4322,-11,-647,-19,-65,13,2024-01-24 14:35:40,0.0
4276,-5,-697,-12,-70,12,2024-01-24 14:35:40,0.0
4315,-8,-714,11,-88,7,2024-01-24 14:35:40,0.0
4319,-9,-687,17,-94,9,2024-01-24 14:35:40,0.0
4299,18,-738,28,-86,16,2024-01-24 14:35:40,0.0
4312,43,-694,17,-71,15,2024-01-24 14:35:40,0.0
4294,59,-621,-1,-27,9,2024-01-24 14:35:40,0.0
4322,38,-711,-15,-10,7,2024-01-24 14:35:40,0.0
4311,-4,-625,-16,20,2,2024-01-24 14:35:40,0.0
4273,18,-631,-28,17,0,2024-01-24 14:35:40,0.0
4335,73,-642,-33,-2,1,2024-01-24 14:35:40,0.0
4315,-18,-680,-33,-6,-2,2024-01-24 14:35:40,0.0
4308,46,-606,-48,-6,2,2024-01-24 14:35:40,0.0
4276,37,-614,-66,-4,4,2024-01-24 14:35:41,0.0
4300,9,-621,-74,-22,7,2024-01-24 14:35:41,0.0
4283,-16,-611,-84,0,9,2024-01-24 14:35:41,0.0
4280,-13,-601,-67,-30,10,2024-01-24 14:35:41,0.0
4231,-5,-653,-65,-26,10,2024-01-24 14:35:41,0.0
4333,2,-583,-61,-29,9,2024-01-24 14:35:41,0.0
4259,3,-586,-50,-38,13,2024-01-24 14:35:41,0.0
4310,18,-597,-35,-60,6,2024-01-24 14:35:41,0.0
4276,12,-589,-47,-65,6,2024-01-24 14:35:41,0.0
4327,-16,-647,-57,-77,4,2024-01-24 14:35:41,0.0
4299,25,-625,-69,-51,6,2024-01-24 14:35:41,0.0
4311,53,-648,-93,-30,3,2024-01-24 14:35:41,0.0
4340,19,-646,-94,-4,0,2024-01-24 14:35:41,0.0
4360,30,-709,-87,-17,15,2024-01-24 14:35:41,0.0
4328,89,-712,-122,65,1,2024-01-24 14:35:41,0.0
4263,21,-674,-126,41,6,2024-01-24 14:35:41,0.0
4311,95,-659,-127,64,-1,2024-01-24 14:35:41,0.0
4269,47,-660,-121,32,5,2024-01-24 14:35:42,0.0
4357,85,-663,-105,24,5,2024-01-24 14:35:42,0.0
4265,42,-682,-99,6,8,2024-01-24 14:35:42,0.0
4320,108,-635,-107,8,5,2024-01-24 14:35:42,0.0
4315,99,-586,-117,9,12,2024-01-24 14:35:42,0.0
4307,55,-582,-120,18,15,2024-01-24 14:35:42,0.0
4250,42,-565,-83,0,-3,2024-01-24 14:35:42,0.0
4270,18,-582,-35,-22,-4,2024-01-24 14:35:42,0.0
4291,52,-625,9,-40,10,2024-01-24 14:35:42,0.0
4309,92,-610,13,-49,20,2024-01-24 14:35:42,0.0
4256,62,-607,22,-54,18,2024-01-24 14:35:42,0.0
4276,108,-619,14,-56,20,2024-01-24 14:35:42,0.0
4263,91,-580,6,-68,20,2024-01-24 14:35:42,0.0
4340,92,-656,-21,-82,22,2024-01-24 14:35:42,0.0
4305,104,-657,-27,-97,11,2024-01-24 14:35:42,0.0
4296,51,-646,-33,-81,6,2024-01-24 14:35:42,0.0
4445,100,-651,-19,-81,17,2024-01-24 14:35:42,0.0
4292,21,-584,-19,-40,35,2024-01-24 14:35:42,0.0
4331,37,-616,-8,-29,13,2024-01-24 14:35:43,0.0
4294,50,-592,-18,-12,24,2024-01-24 14:35:43,0.0
4312,2,-590,-16,-35,26,2024-01-24 14:35:43,0.0
4258,5,-578,-13,-53,23,2024-01-24 14:35:43,0.0
4301,-5,-629,11,-72,19,2024-01-24 14:35:43,0.0
4283,-16,-557,45,-97,10,2024-01-24 14:35:43,0.0
4297,-3,-542,92,-139,17,2024-01-24 14:35:43,0.0
4366,17,-597,87,-124,2,2024-01-24 14:35:43,0.0
4436,-19,-667,100,-31,5,2024-01-24 14:35:43,0.0
4334,3,-685,103,47,-7,2024-01-24 14:35:43,0.0
4261,65,-625,88,37,-10,2024-01-24 14:35:43,0.0
4300,15,-568,57,-17,-6,2024-01-24 14:35:43,0.0
4312,-12,-607,15,-73,-3,2024-01-24 14:35:43,0.0
4340,17,-713,1,-34,10,2024-01-24 14:35:43,0.0
4302,33,-707,-38,-21,10,2024-01-24 14:35:43,0.0
4298,21,-642,-76,-16,6,2024-01-24 14:35:43,0.0
4281,11,-653,-91,-33,10,2024-01-24 14:35:43,0.0
4294,-3,-682,-96,-39,16,2024-01-24 14:35:44,0.0
4293,9,-660,-96,-50,18,2024-01-24 14:35:44,0.0
4288,39,-698,-97,-63,13,2024-01-24 14:35:44,0.0
4278,-10,-643,-95,-58,14,2024-01-24 14:35:44,0.0
4295,8,-657,-92,-46,14,2024-01-24 14:35:44,0.0
4341,3,-697,-86,-25,13,2024-01-24 14:35:44,0.0
4326,13,-678,-84,-22,17,2024-01-24 14:35:44,0.0
4313,41,-718,-80,-34,7,2024-01-24 14:35:44,0.0
4269,29,-728,-80,-37,7,2024-01-24 14:35:44,0.0
4303,45,-795,-80,-48,6,2024-01-24 14:35:44,0.0
4281,78,-758,-94,-35,17,2024-01-24 14:35:44,0.0
4289,46,-746,-110,-25,17,2024-01-24 14:35:44,0.0
4289,47,-796,-114,-28,23,2024-01-24 14:35:44,0.0
4300,29,-758,-122,-27,23,2024-01-24 14:35:44,0.0
4282,35,-733,-115,-24,22,2024-01-24 14:35:44,0.0
4300,52,-763,-113,-22,15,2024-01-24 14:35:44,0.0
4288,50,-757,-107,-28,17,2024-01-24 14:35:44,0.0
4268,30,-730,-103,-30,21,2024-01-24 14:35:45,0.0
4305,61,-765,-101,-37,17,2024-01-24 14:35:45,0.0
4270,20,-745,-102,-41,12,2024-01-24 14:35:45,
4296,-1,-768,-93,-36,18,2024-01-24 14:35:45,0.0
4289,37,-758,-81,-58,20,2024-01-24 14:35:45,0.0
4226,45,-704,-76,-24,13,2024-01-24 14:35:45,0.0
4293,5,-788,-62,-59,22,2024-01-24 14:35:45,0.0
4265,38,-786,-70,-27,15,2024-01-24 14:35:45,0.0
4275,24,-734,-62,-37,18,2024-01-24 14:35:45,0.0
4272,34,-767,-50,-33,18,2024-01-24 14:35:45,0.0
4296,40,-752,-37,-48,22,2024-01-24 14:35:45,0.0
4296,-2,-752,-21,-43,16,2024-01-24 14:35:45,0.0
4296,-12,-700,11,-28,14,2024-01-24 14:35:45,0.0
4281,-32,-778,41,-35,11,2024-01-24 14:35:45,0.0
4339,-72,-745,88,-30,6,2024-01-24 14:35:45,0.0
4290,-60,-754,106,-12,12,2024-01-24 14:35:45,0.0
4310,-38,-714,132,16,6,2024-01-24 14:35:45,0.0
4323,-15,-779,138,33,2,2024-01-24 14:35:45,0.0
4302,5,-670,123,35,7,2024-01-24 14:35:46,0.0
4292,8,-745,112,7,13,2024-01-24 14:35:46,0.0
4293,25,-662,83,9,11,2024-01-24 14:35:46,0.0
4283,-3,-714,84,0,14,2024-01-24 14:35:46,0.0
4268,17,-695,71,-15,13,2024-01-24 14:35:46,0.0
4336,11,-701,56,-23,16,2024-01-24 14:35:46,0.0
4286,4,-642,33,-11,9,2024-01-24 14:35:46,0.0
4290,-77,-656,36,46,19,2024-01-24 14:35:46,0.0
4254,-71,-622,54,15,11,2024-01-24 14:35:46,0.0
4343,-62,-546,53,-52,7,2024-01-24 14:35:46,0.0
4317,-61,-632,29,-53,9,2024-01-24 14:35:46,0.0
4318,-77,-625,23,-29,7,2024-01-24 14:35:46,0.0
4297,-105,-684,34,-12,7,2024-01-24 14:35:46,0.0
4261,-83,-588,16,-24,18,2024-01-24 14:35:46,0.0
4329,-77,-622,-17,-71,27,2024-01-24 14:35:46,0.0
4255,-99,-667,-65,-54,24,2024-01-24 14:35:46,0.0
4359,-91,-728,-92,-20,20,2024-01-24 14:35:46,0.0
4295,-140,-676,-115,1,29,2024-01-24 14:35:46,0.0
4302,-77,-628,-135,-21,33,2024-01-24 14:35:47,0.0
4305,-91,-653,-162,-27,34,2024-01-24 14:35:47,0.0
4322,-138,-671,-156,-29,24,2024-01-24 14:35:47,0.0
4270,-132,-722,-144,-17,20,2024-01-24 14:35:47,0.0
4326,-120,-616,-143,-29,7,2024-01-24 14:35:47,0.0
4279,-135,-660,-127,-38,21,2024-01-24 14:35:47,0.0
4278,-140,-654,-101,-40,-1,2024-01-24 14:35:47,0.0
4265,-139,-676,-86,-27,1,2024-01-24 14:35:47,0.0
4291,-126,-658,-79,-29,-10,2024-01-24 14:35:47,0.0
4294,-140,-664,-80,-44,-11,2024-01-24 14:35:47,0.0
4287,-96,-659,-80,-38,-24,2024-01-24 14:35:47,0.0
4303,-107,-703,-86,-29,-14,2024-01-24 14:35:47,0.0
4311,-81,-696,-88,-37,-16,2024-01-24 14:35:47,0.0
4322,-70,-638,-90,-33,-9,2024-01-24 14:35:47,0.0
4292,-35,-708,-102,-23,-4,2024-01-24 14:35:47,0.0
4270,-83,-716,-93,-26,-3,2024-01-24 14:35:47,0.0
4259,-27,-672,-78,-46,-7,2024-01-24 14:35:47,0.0
4288,-39,-651,-78,-44,1,2024-01-24 14:35:48,0.0
4300,-62,-697,-64,-50,6,2024-01-24 14:35:48,0.0
4340,-6,-680,-56,-41,1,2024-01-24 14:35:48,0.0
4283,12,-705,-44,-32,1,2024-01-24 14:35:48,0.0
4279,33,-710,-55,-18,1,2024-01-24 14:35:48,0.0
4309,51,-729,-68,-28,3,2024-01-24 14:35:48,0.0
4288,22,-644,-72,-25,1,2024-01-24 14:35:48,0.0
4295,26,-638,-77,-15,2,2024-01-24 14:35:48,0.0
4290,3,-658,-75,-28,-1,2024-01-24 14:35:48,0.0
4290,19,-665,-62,-40,-4,2024-01-24 14:35:48,0.0
4342,27,-692,-59,-40,3,2024-01-24 14:35:48,0.0
4316,16,-698,-57,-30,4,2024-01-24 14:35:48,0.0
4331,59,-699,-62,-31,-2,2024-01-24 14:35:48,0.0
4319,63,-684,-81,-9,5,2024-01-24 14:35:48,0.0
4283,28,-668,-92,-18,6,2024-01-24 14:35:48,0.0
4287,44,-663,-103,-22,8,2024-01-24 14:35:48,0.0
4325,53,-626,-112,-14,4,2024-01-24 14:35:48,0.0
4292,76,-670,-126,-18,7,2024-01-24 14:35:49,0.0
4320,42,-637,-119,-21,7,2024-01-24 14:35:49,0.0
4293,57,-645,-119,-3,4,2024-01-24 14:35:49,0.0
4302,95,-635,-108,-10,5,2024-01-24 14:35:49,0.0
4273,65,-654,-92,-10,8,2024-01-24 14:35:49,0.0
4300,49,-682,-79,-8,8,2024-01-24 14:35:49,0.0
4268,80,-627,-75,-13,9,2024-01-24 14:35:49,0.0
4300,75,-626,-61,-18,12,2024-01-24 14:35:49,0.0
4250,86,-626,-49,-18,13,2024-01-24 14:35:49,0.0
4304,43,-642,-39,-22,9,2024-01-24 14:35:49,0.0
4296,104,-655,-28,-23,9,2024-01-24 14:35:49,0.0
4304,64,-638,-22,-30,10,2024-01-24 14:35:49,0.0
4272,84,-602,-28,-28,17,2024-01-24 14:35:49,0.0
4293,96,-612,-25,-35,22,2024-01-24 14:35:49,0.0
4319,63,-603,-26,-30,17,2024-01-24 14:35:49,0.0
4290,86,-580,-12,-26,21,2024-01-24 14:35:49,0.0
4348,46,-593,5,-36,15,2024-01-24 14:35:49,0.0
4318,49,-572,31,-9,6,2024-01-24 14:35:49,0.0
4392,40,-581,71,41,-13,2024-01-24 14:35:50,0.0
4287,16,-599,130,180,-22,2024-01-24 14:35:50,0.0
4246,59,-416,147,184,0,2024-01-24 14:35:50,0.0
4220,-20,-410,182,-27,23,2024-01-24 14:35:50,0.0
4342,78,-505,174,-82,27,2024-01-24 14:35:50,0.0
4325,51,-546,160,-40,8,2024-01-24 14:35:50,0.0
4307,29,-624,147,-76,20,2024-01-24 14:35:50,0.0
4309,8,-519,112,-72,14,2024-01-24 14:35:50,0.0
4307,-14,-595,83,-90,32,2024-01-24 14:35:50,0.0
4277,-11,-616,40,-85,26,2024-01-24 14:35:50,0.0
4309,-25,-629,0,-80,23,2024-01-24 14:35:50,0.0
4293,-56,-632,-39,-82,23,2024-01-24 14:35:50,0.0
4307,-46,-658,-71,-78,23,2024-01-24 14:35:50,0.0
4297,-78,-608,-87,-80,21,2024-01-24 14:35:50,0.0
4313,-69,-648,-87,-72,20,2024-01-24 14:35:50,
4298,-67,-677,-98,-56,13,2024-01-24 14:35:50,0.0
4316,-40,-680,-118,-52,14,2024-01-24 14:35:50,0.0
4315,-74,-681,-121,-38,14,2024-01-24 14:35:51,0.0
4288,-78,-650,-117,-40,10,2024-01-24 14:35:51,0.0
4265,-71,-701,-108,-42,5,2024-01-24 14:35:51,0.0
4310,-80,-704,-91,-34,6,2024-01-24 14:35:51,0.0
4314,-63,-685,-62,-35,4,2024-01-24 14:35:51,0.0
4302,-55,-677,-25,-5,12,2024-01-24 14:35:51,0.0
4393,55,-698,44,162,11,2024-01-24 14:35:51,0.0
4214,-130,-532,126,120,47,2024-01-24 14:35:51,0.0
4283,-91,-514,343,45,23,2024-01-24 14:35:51,0.0
4348,-14,-575,485,-3,30,2024-01-24 14:35:51,0.0
4288,28,-603,594,-26,16,2024-01-24 14:35:51,0.0
4242,82,-711,626,-64,11,2024-01-24 14:35:51,0.0
4313,49,-746,623,-95,13,2024-01-24 14:35:51,0.0
4277,89,-766,594,-114,0,2024-01-24 14:35:51,0.0
4249,39,-702,503,-96,0,2024-01-24 14:35:51,0.0
4293,73,-727,376,-112,-1,2024-01-24 14:35:51,0.0
4324,-50,-609,242,-57,8,2024-01-24 14:35:51,0.0
4276,-212,-554,183,-64,-19,2024-01-24 14:35:51,0.0
4411,-234,-601,169,-55,-16,2024-01-24 14:35:52,0.0
4326,-329,-652,154,-58,33,2024-01-24 14:35:52,0.0
4292,-338,-575,135,-28,-6,2024-01-24 14:35:52,0.0
4352,-222,-504,63,-80,-11,2024-01-24 14:35:52,0.0
4362,-201,-519,-12,-6,16,2024-01-24 14:35:52,0.0
4290,-433,-588,9,-40,32,2024-01-24 14:35:52,0.0
4331,-351,-690,-19,-56,22,2024-01-24 14:35:52,0.0
4372,-460,-669,-29,-34,38,2024-01-24 14:35:52,0.0
4241,-331,-600,-80,-15,19,2024-01-24 14:35:52,0.0
4372,-417,-618,-80,-60,19,2024-01-24 14:35:52,0.0
4288,-401,-638,-93,102,13,2024-01-24 14:35:52,0.0
4314,-389,-545,-77,182,-2,2024-01-24 14:35:52,0.0
4335,-435,-588,-60,-60,-8,2024-01-24 14:35:52,0.0
4238,-477,-565,-14,-19,-47,2024-01-24 14:35:52,0.0
4298,-477,-580,23,-19,-74,2024-01-24 14:35:52,0.0
4362,-421,-524,38,48,-79,2024-01-24 14:35:52,0.0
4373,-416,-506,32,28,-71,2024-01-24 14:35:52,0.0
4298,-275,-452,-14,60,-41,2024-01-24 14:35:53,0.0
4309,-269,-469,-40,-66,-28,2024-01-24 14:35:53,0.0
4255,-165,-540,-75,-23,16,2024-01-24 14:35:53,0.0
4191,-66,-536,-180,-92,31,2024-01-24 14:35:53,0.0
4297,-80,-630,-249,-127,35,2024-01-24 14:35:53,0.0
4346,-17,-621,-276,-75,25,2024-01-24 14:35:53,0.0
4311,97,-603,-287,-52,6,2024-01-24 14:35:53,0.0
4393,295,-571,-336,-72,-50,2024-01-24 14:35:53,0.0
4396,288,-580,-321,-41,-62,2024-01-24 14:35:53,0.0
4431,297,-620,-299,-63,-108,2024-01-24 14:35:53,0.0
4342,249,-552,-234,-23,-130,2024-01-24 14:35:53,0.0
4161,334,-533,-129,-25,-105,2024-01-24 14:35:53,0.0
4322,274,-567,-50,-76,-26,2024-01-24 14:35:53,0.0
4465,77,-534,92,19,-56,2024-01-24 14:35:53,0.0
4098,327,-427,152,69,-49,2024-01-24 14:35:53,0.0
4440,304,-694,85,-57,-18,2024-01-24 14:35:53,0.0
4278,-10,-749,59,27,-33,2024-01-24 14:35:53,0.0
4284,106,-645,98,39,-10,2024-01-24 14:35:53,0.0
4295,82,-677,80,46,26,2024-01-24 14:35:54,0.0
4327,48,-541,25,114,38,2024-01-24 14:35:54,0.0
4260,58,-501,-31,-15,22,2024-01-24 14:35:54,0.0
4358,12,-586,-34,-59,42,2024-01-24 14:35:54,0.0
4307,-44,-565,-47,-3,42,2024-01-24 14:35:54,0.0
4267,-40,-517,-47,-28,32,2024-01-24 14:35:54,0.0
4315,-44,-557,-30,-52,41,2024-01-24 14:35:54,0.0
4339,-82,-540,-8,-44,36,2024-01-24 14:35:54,0.0
4365,-61,-539,18,-8,28,2024-01-24 14:35:54,0.0
4261,-31,-539,22,-25,17,2024-01-24 14:35:54,0.0
4340,-28,-546,22,-45,23,2024-01-24 14:35:54,0.0
4294,-22,-532,18,-39,23,2024-01-24 14:35:54,0.0
4330,-69,-558,14,-42,23,2024-01-24 14:35:54,0.0
4311,-21,-536,4,-10,23,2024-01-24 14:35:54,0.0
4315,-52,-501,-9,-24,21,2024-01-24 14:35:54,0.0
4312,-33,-517,6,17,22,2024-01-24 14:35:54,0.0
4317,-56,-541,4,-25,19,2024-01-24 14:35:54,0.0
4276,37,-477,-39,-22,6,2024-01-24 14:35:55,0.0
4294,11,-525,-63,-34,-1,2024-01-24 14:35:55,0.0
4381,24,-591,-85,-5,1,2024-01-24 14:35:55,0.0
4329,-19,-540,-102,11,4,2024-01-24 14:35:55,0.0
4296,1,-476,-105,43,12,2024-01-24 14:35:55,0.0
4301,-40,-413,-96,-15,13,2024-01-24 14:35:55,0.0
4295,-37,-470,-69,-47,14,2024-01-24 14:35:55,0.0
4309,-31,-456,-45,-26,13,2024-01-24 14:35:55,0.0
4321,-42,-467,-26,-33,7,2024-01-24 14:35:55,0.0
4295,-5,-447,-11,-54,3,2024-01-24 14:35:55,0.0
4296,16,-515,5,-65,7,2024-01-24 14:35:55,0.0
4318,25,-490,-8,-52,3,2024-01-24 14:35:55,0.0
4313,24,-476,-19,-85,16,2024-01-24 14:35:55,0.0
4303,0,-450,-30,-93,5,2024-01-24 14:35:55,0.0
4379,-2,-589,-51,-79,15,2024-01-24 14:35:55,0.0
4285,-21,-582,-63,-68,8,2024-01-24 14:35:55,0.0
4302,-11,-564,-59,-73,13,2024-01-24 14:35:55,0.0
4259,-13,-589,-69,-112,18,2024-01-24 14:35:55,0.0
4318,10,-576,-45,-148,24,2024-01-24 14:35:56,0.0
4323,-32,-592,-64,-133,24,2024-01-24 14:35:56,0.0
4388,17,-664,-88,-74,11,2024-01-24 14:35:56,0.0
4361,-27,-641,-80,-12,-1,2024-01-24 14:35:56,0.0
4304,-30,-645,-74,6,2,2024-01-24 14:35:56,0.0
4290,-5,-653,-57,51,-4,2024-01-24 14:35:56,0.0
4263,1,-655,-68,44,2,2024-01-24 14:35:56,0.0
4322,-4,-692,-83,46,6,2024-01-24 14:35:56,0.0
4277,5,-590,-78,7,18,2024-01-24 14:35:56,0.0
4271,9,-620,-77,-33,17,2024-01-24 14:35:56,
4270,2,-554,-81,-67,21,2024-01-24 14:35:56,0.0
4310,-33,-629,-72,-78,17,2024-01-24 14:35:56,0.0
4313,-13,-553,-68,-48,7,2024-01-24 14:35:56,0.0
4306,-14,-639,-49,-34,4,2024-01-24 14:35:56,0.0
4344,14,-601,-48,-13,1,2024-01-24 14:35:56,0.0
4294,-5,-587,-40,-10,0,2024-01-24 14:35:56,0.0
4291,8,-594,-34,-31,3,2024-01-24 14:35:56,0.0
4300,1,-603,-35,-30,7,2024-01-24 14:35:57,0.0
4332,21,-621,-38,-37,6,2024-01-24 14:35:57,0.0
4301,24,-636,-44,-54,10,2024-01-24 14:35:57,0.0
4299,9,-610,-48,-39,10,2024-01-24 14:35:57,0.0
4329,-2,-609,-34,-41,8,2024-01-24 14:35:57,0.0
4304,35,-622,-31,-28,6,2024-01-24 14:35:57,0.0
4288,40,-628,-38,-34,6,2024-01-24 14:35:57,0.0
4311,-3,-654,-42,-40,13,2024-01-24 14:35:57,0.0
4311,16,-649,-41,-34,14,2024-01-24 14:35:57,0.0
4303,7,-683,-42,-54,13,2024-01-24 14:35:57,0.0
4310,29,-640,-49,-32,20,2024-01-24 14:35:57,0.0
4321,97,-663,-66,-38,19,2024-01-24 14:35:57,0.0
4256,-15,-658,-76,-7,24,2024-01-24 14:35:57,0.0
4330,72,-620,-75,3,8,2024-01-24 14:35:57,0.0
4269,-3,-636,-21,-6,21,2024-01-24 14:35:57,0.0
4279,-53,-548,7,-33,-4,2024-01-24 14:35:57,0.0
4358,-36,-616,10,-7,12,2024-01-24 14:35:57,0.0
4327,2,-612,29,20,11,2024-01-24 14:35:58,0.0
4374,26,-638,26,24,13,2024-01-24 14:35:58,0.0
4319,32,-666,10,72,3,2024-01-24 14:35:58,0.0
4292,66,-560,-31,16,10,2024-01-24 14:35:58,0.0
4260,-6,-572,-54,3,5,2024-01-24 14:35:58,0.0
4307,74,-602,-56,-71,4,2024-01-24 14:35:58,0.0
4266,-2,-515,-68,-101,-4,2024-01-24 14:35:58,0.0
4344,32,-516,-75,-116,12,2024-01-24 14:35:58,0.0
4352,15,-470,-102,-87,5,2024-01-24 14:35:58,0.0
4383,-16,-604,-73,-9,11,2024-01-24 14:35:58,0.0
4378,-30,-559,-60,171,19,2024-01-24 14:35:58,0.0
4450,4,-618,-54,391,9,2024-01-24 14:35:58,0.0
4173,45,-266,-67,312,28,2024-01-24 14:35:58,0.0
4296,-27,-306,-73,144,13,2024-01-24 14:35:58,0.0
4290,-40,-366,-42,62,16,2024-01-24 14:35:58,0.0
4291,-36,-302,-52,61,12,2024-01-24 14:35:58,0.0
4257,5,-160,-80,-98,21,2024-01-24 14:35:58,0.0
4364,-4,-221,-85,-125,18,2024-01-24 14:35:58,0.0
4353,-55,-279,-66,-86,18,2024-01-24 14:35:59,0.0
4346,-1,-294,-54,-108,20,2024-01-24 14:35:59,0.0
4350,34,-243,-67,-139,-5,2024-01-24 14:35:59,0.0
4300,-65,-353,-53,-149,-2,2024-01-24 14:35:59,0.0
4252,4,-339,-41,-311,-12,2024-01-24 14:35:59,0.0
4350,36,-370,-18,-324,-4,2024-01-24 14:35:59,0.0
4360,-40,-481,-62,-248,-5,2024-01-24 14:35:59,0.0
4420,2,-635,-81,-70,-2,2024-01-24 14:35:59,0.0
4359,29,-592,-102,97,12,2024-01-24 14:35:59,0.0
4308,26,-620,-96,325,3,2024-01-24 14:35:59,0.0
4292,-3,-512,-92,382,0,2024-01-24 14:35:59,0.0
4331,84,-402,-57,-63,13,2024-01-24 14:35:59,0.0
4305,32,-376,-124,-64,12,2024-01-24 14:35:59,0.0
4303,45,-389,-133,-234,14,2024-01-24 14:35:59,0.0
4361,3,-476,-151,-213,6,2024-01-24 14:35:59,0.0
4375,-14,-526,-114,-89,1,2024-01-24 14:35:59,0.0
4313,7,-489,-83,-108,3,2024-01-24 14:35:59,0.0
4322,118,-532,-111,-126,-7,2024-01-24 14:36:00,0.0
4331,206,-524,-184,-186,-15,2024-01-24 14:36:00,0.0
4326,172,-601,-184,-117,-2,2024-01-24 14:36:00,0.0
4316,97,-677,-131,-65,1,2024-01-24 14:36:00,0.0
4297,187,-612,-93,-38,9,2024-01-24 14:36:00,0.0
4263,202,-588,-75,-22,25,2024-01-24 14:36:00,0.0
4347,159,-607,-37,-39,24,2024-01-24 14:36:00,0.0
4282,123,-630,11,-31,17,2024-01-24 14:36:00,0.0
4274,112,-628,56,-51,15,2024-01-24 14:36:00,0.0
4329,107,-679,69,-40,19,2024-01-24 14:36:00,0.0
4275,13,-638,118,-33,31,2024-01-24 14:36:00,0.0
4315,45,-599,108,4,45,2024-01-24 14:36:00,0.0
4303,-22,-700,102,19,47,2024-01-24 14:36:00,0.0
4252,-45,-637,55,-30,45,2024-01-24 14:36:00,0.0
4337,-194,-584,77,-57,53,2024-01-24 14:36:00,0.0
4359,-114,-670,47,13,54,2024-01-24 14:36:00,0.0
4315,-166,-619,39,9,52,2024-01-24 14:36:00,0.0
4268,-171,-650,25,-7,56,2024-01-24 14:36:01,0.0
4288,-206,-571,14,-77,39,2024-01-24 14:36:01,0.0
4328,-162,-563,-12,-81,49,2024-01-24 14:36:01,0.0
4291,-217,-599,-24,-44,34,2024-01-24 14:36:01,0.0
4328,-208,-610,-50,-30,22,2024-01-24 14:36:01,0.0
4270,-227,-636,-60,-32,2,2024-01-24 14:36:01,0.0
4270,-243,-568,-42,-88,-6,2024-01-24 14:36:01,0.0
4321,-276,-541,32,-143,-17,2024-01-24 14:36:01,0.0
4390,-143,-583,18,-106,1,2024-01-24 14:36:01,0.0
4307,-166,-667,0,-39,3,2024-01-24 14:36:01,0.0
4354,-207,-687,29,-1,-13,2024-01-24 14:36:01,0.0
4268,-142,-578,63,3,-32,2024-01-24 14:36:01,0.0
4284,-142,-597,52,-44,-31,2024-01-24 14:36:01,0.0
4312,-112,-628,-3,-38,-10,2024-01-24 14:36:01,0.0
4322,-154,-731,-7,-40,-4,2024-01-24 14:36:01,0.0
4265,-157,-667,25,12,-11,2024-01-24 14:36:01,0.0
4317,-100,-662,23,-10,-10,2024-01-24 14:36:01,0.0
4228,-18,-690,4,-17,-10,2024-01-24 14:36:01,0.0
4289,-1,-684,-29,-42,-5,2024-01-24 14:36:02,0.0
4262,71,-680,-66,-17,-12,2024-01-24 14:36:02,0.0
4252,84,-649,-123,-63,-11,2024-01-24 14:36:02,0.0
4325,117,-750,-156,-44,-9,2024-01-24 14:36:02,0.0
4311,69,-719,-180,-55,-11,2024-01-24 14:36:02,0.0
4298,121,-668,-193,-25,-14,2024-01-24 14:36:02,
4296,131,-690,-203,-35,-10,2024-01-24 14:36:02,0.0
4293,136,-636,-198,-29,-16,2024-01-24 14:36:02,0.0
4315,123,-697,-189,-23,-3,2024-01-24 14:36:02,0.0
4312,100,-650,-174,-28,-14,2024-01-24 14:36:02,0.0
4277,140,-626,-140,-38,2,2024-01-24 14:36:02,0.0
4303,119,-684,-124,-27,2,2024-01-24 14:36:02,0.0
4283,97,-653,-102,-50,12,2024-01-24 14:36:02,0.0
4276,90,-687,-67,-50,12,2024-01-24 14:36:02,0.0
4278,103,-705,-54,-51,13,2024-01-24 14:36:02,0.0
4285,51,-684,-43,-40,14,2024-01-24 14:36:02,0.0
4313,35,-709,-21,-39,15,2024-01-24 14:36:02,0.0
4292,29,-751,-16,-41,22,2024-01-24 14:36:02,0.0
4305,17,-673,-17,-47,24,2024-01-24 14:36:03,0.0
4288,22,-713,-17,-44,20,2024-01-24 14:36:03,0.0
4287,17,-725,-17,-47,21,2024-01-24 14:36:03,0.0
4300,-17,-682,-23,-36,17,2024-01-24 14:36:03,0.0
4298,3,-692,-4,-47,17,2024-01-24 14:36:03,0.0
4301,-10,-751,-7,-33,11,2024-01-24 14:36:03,0.0
4283,9,-762,-5,-26,5,2024-01-24 14:36:03,0.0
4287,6,-720,-15,-30,11,2024-01-24 14:36:03,0.0
4294,-31,-741,-22,-33,12,2024-01-24 14:36:03,0.0
4271,-10,-724,-27,-36,9,2024-01-24 14:36:03,0.0
4292,-15,-721,-30,-25,15,2024-01-24 14:36:03,0.0
4275,-25,-713,-35,-28,10,2024-01-24 14:36:03,0.0
4281,-4,-697,-36,-23,17,2024-01-24 14:36:03,0.0
4267,3,-740,-41,-19,17,2024-01-24 14:36:03,0.0
4283,-24,-742,-46,-22,12,2024-01-24 14:36:03,0.0
4274,-32,-723,-41,-30,19,2024-01-24 14:36:03,0.0
4308,-30,-712,-37,-26,17,2024-01-24 14:36:03,0.0
4265,-23,-744,-35,-37,16,2024-01-24 14:36:04,0.0
4324,13,-715,-54,-15,10,2024-01-24 14:36:04,0.0
4265,17,-679,-60,-23,9,2024-01-24 14:36:04,0.0
4274,40,-684,-85,-21,6,2024-01-24 14:36:04,0.0
4277,95,-683,-94,-23,13,2024-01-24 14:36:04,0.0
4312,74,-704,-111,-28,13,2024-01-24 14:36:04,0.0
4281,85,-726,-134,-26,3,2024-01-24 14:36:04,0.0
4298,86,-702,-142,-26,9,2024-01-24 14:36:04,0.0
4286,59,-698,-142,-28,3,2024-01-24 14:36:04,0.0
4276,50,-694,-131,-27,3,2024-01-24 14:36:04,0.0
4293,29,-690,-106,-25,8,2024-01-24 14:36:04,0.0
4269,61,-679,-83,-35,1,2024-01-24 14:36:04,0.0
4273,83,-684,-67,-27,3,2024-01-24 14:36:04,0.0
4303,72,-671,-56,-26,1,2024-01-24 14:36:04,0.0
4290,40,-706,-34,-28,9,2024-01-24 14:36:04,0.0
4296,46,-668,-14,-25,2,2024-01-24 14:36:04,0.0
4304,57,-702,-9,-24,3,2024-01-24 14:36:04,0.0
4302,45,-676,-2,-24,5,2024-01-24 14:36:04,0.0
4278,47,-670,-10,-36,13,2024-01-24 14:36:05,0.0
4255,25,-696,5,-66,14,2024-01-24 14:36:05,0.0
4280,31,-697,12,-68,16,2024-01-24 14:36:05,0.0
4316,27,-722,9,-43,12,2024-01-24 14:36:05,0.0
4307,46,-718,-8,-5,16,2024-01-24 14:36:05,0.0
4279,40,-762,-29,17,11,2024-01-24 14:36:05,0.0
4251,33,-692,-30,3,9,2024-01-24 14:36:05,0.0
4311,39,-644,-39,-26,6,2024-01-24 14:36:05,0.0
4233,1,-682,-41,-41,-2,2024-01-24 14:36:05,0.0
4323,2,-697,-32,-1,-6,2024-01-24 14:36:05,0.0
4292,-20,-724,-14,-24,8,2024-01-24 14:36:05,0.0
4275,25,-662,-7,-35,3,2024-01-24 14:36:05,0.0
4318,-7,-704,-27,-66,7,2024-01-24 14:36:05,0.0
4283,29,-737,-21,-75,10,2024-01-24 14:36:05,0.0
4281,-18,-716,-25,-28,17,2024-01-24 14:36:05,0.0
4349,15,-758,-30,6,14,2024-01-24 14:36:05,0.0
4268,21,-780,-25,19,12,2024-01-24 14:36:05,0.0
4251,17,-733,-37,2,12,2024-01-24 14:36:06,0.0
4244,22,-686,-51,-53,10,2024-01-24 14:36:06,0.0
4257,36,-735,-59,-82,8,2024-01-24 14:36:06,0.0
4308,18,-721,-60,-81,13,2024-01-24 14:36:06,0.0
4317,40,-752,-71,-64,14,2024-01-24 14:36:06,0.0
4352,14,-716,-77,-20,16,2024-01-24 14:36:06,0.0
4278,15,-725,-69,-1,13,2024-01-24 14:36:06,0.0
4249,45,-747,-63,-5,10,2024-01-24 14:36:06,0.0
4296,18,-695,-54,-50,10,2024-01-24 14:36:06,0.0
4288,23,-701,-48,-65,10,2024-01-24 14:36:06,0.0
4299,19,-690,-50,-45,10,2024-01-24 14:36:06,0.0
4330,40,-709,-52,-17,8,2024-01-24 14:36:06,0.0
4286,37,-727,-49,7,9,2024-01-24 14:36:06,0.0
4261,46,-710,-51,-6,0,2024-01-24 14:36:06,0.0
4268,7,-700,-54,-32,6,2024-01-24 14:36:06,0.0
4292,53,-728,-48,-41,12,2024-01-24 14:36:06,0.0
4302,40,-723,-53,-35,10,2024-01-24 14:36:06,0.0
4320,31,-741,-47,-22,9,2024-01-24 14:36:06,0.0
4300,36,-702,-49,-5,9,2024-01-24 14:36:07,0.0
4266,6,-733,-47,-16,12,2024-01-24 14:36:07,0.0
4305,23,-742,-40,-39,15,2024-01-24 14:36:07,0.0
4268,32,-661,-42,-40,10,2024-01-24 14:36:07,0.0
4307,56,-740,-38,4,11,2024-01-24 14:36:07,0.0
4294,20,-715,-35,4,12,2024-01-24 14:36:07,0.0
4254,47,-672,-33,-24,12,2024-01-24 14:36:07,0.0
4305,52,-679,-36,-32,13,2024-01-24 14:36:07,0.0
4329,17,-707,-26,-30,14,2024-01-24 14:36:07,0.0
4291,67,-661,-25,-9,11,2024-01-24 14:36:07,0.0
4258,59,-675,-40,-18,13,2024-01-24 14:36:07,0.0
4288,54,-696,-43,-7,15,2024-01-24 14:36:07,0.0
4313,6,-657,-39,-13,11,2024-01-24 14:36:07,0.0
4286,51,-644,-48,-17,12,2024-01-24 14:36:07,0.0
4312,27,-695,-50,-12,12,2024-01-24 14:36:07,0.0
4305,24,-643,-51,-12,13,2024-01-24 14:36:07,0.0
4288,-11,-638,-32,-30,14,2024-01-24 14:36:07,0.0
4294,31,-644,-28,-27,9,2024-01-24 14:36:08,
4277,32,-658,-24,-30,8,2024-01-24 14:36:08,0.0
4297,7,-662,-29,-24,8,2024-01-24 14:36:08,0.0
4294,27,-706,-30,-29,4,2024-01-24 14:36:08,0.0
4307,24,-697,-30,-34,9,2024-01-24 14:36:08,0.0
4296,35,-705,-43,-26,6,2024-01-24 14:36:08,0.0
4288,41,-703,-54,-40,12,2024-01-24 14:36:08,0.0
4284,24,-688,-55,-35,9,2024-01-24 14:36:08,0.0
4299,51,-694,-64,-40,5,2024-01-24 14:36:08,0.0
4291,10,-714,-62,-46,9,2024-01-24 14:36:08,0.0
4288,2,-718,-54,-52,9,2024-01-24 14:36:08,0.0
4291,2,-671,-51,-53,7,2024-01-24 14:36:08,0.0
4278,37,-647,-23,-42,7,2024-01-24 14:36:08,0.0
4331,44,-683,-45,-52,5,2024-01-24 14:36:08,0.0
4281,20,-691,-38,-38,11,2024-01-24 14:36:08,0.0
4312,35,-667,-51,-33,12,2024-01-24 14:36:08,0.0
4319,64,-693,-60,-24,14,2024-01-24 14:36:08,0.0
4299,45,-716,-55,-40,10,2024-01-24 14:36:08,0.0
4275,20,-671,-46,-46,12,2024-01-24 14:36:09,0.0
4309,60,-720,-49,-23,6,2024-01-24 14:36:09,0.0
4317,47,-738,-41,9,15,2024-01-24 14:36:09,0.0
4307,33,-720,-44,11,10,2024-01-24 14:36:09,0.0
4288,40,-721,-43,23,6,2024-01-24 14:36:09,0.0
4295,37,-660,-37,2,7,2024-01-24 14:36:09,0.0
4265,35,-672,-43,16,17,2024-01-24 14:36:09,0.0
4284,58,-660,-45,-35,15,2024-01-24 14:36:09,0.0
4327,22,-614,-44,-26,15,2024-01-24 14:36:09,0.0
4293,28,-710,-40,-25,12,2024-01-24 14:36:09,0.0
4271,44,-665,-34,-43,12,2024-01-24 14:36:09,0.0
4274,48,-662,-38,-51,13,2024-01-24 14:36:09,0.0
4259,38,-690,-41,-50,15,2024-01-24 14:36:09,0.0
4319,27,-684,-38,-20,12,2024-01-24 14:36:09,0.0
4288,38,-673,-30,-25,11,2024-01-24 14:36:09,0.0
4284,32,-686,-31,-34,7,2024-01-24 14:36:09,0.0
4273,8,-676,-35,-37,16,2024-01-24 14:36:09,0.0
4283,13,-679,-27,-24,11,2024-01-24 14:36:10,0.0
4287,24,-703,-27,-21,8,2024-01-24 14:36:10,0.0
4309,38,-674,-42,-31,13,2024-01-24 14:36:10,0.0
4282,38,-674,-37,-37,12,2024-01-24 14:36:10,0.0
4325,11,-655,-38,-43,5,2024-01-24 14:36:10,0.0
4316,21,-640,-50,-38,12,2024-01-24 14:36:10,0.0
4283,16,-662,-58,-51,10,2024-01-24 14:36:10,0.0
4317,21,-712,-52,-73,8,2024-01-24 14:36:10,0.0
4301,10,-719,-43,-82,7,2024-01-24 14:36:10,0.0
4280,17,-655,-38,-76,0,2024-01-24 14:36:10,0.0
4303,-15,-761,-35,-66,5,2024-01-24 14:36:10,0.0
4278,-22,-701,-36,-82,4,2024-01-24 14:36:10,0.0
4296,-6,-787,-24,-55,9,2024-01-24 14:36:10,0.0
4302,47,-744,-37,-55,-1,2024-01-24 14:36:10,0.0
4257,56,-783,-39,-59,8,2024-01-24 14:36:10,0.0
4297,20,-751,-58,-55,10,2024-01-24 14:36:10,0.0
4279,25,-739,-41,-50,8,2024-01-24 14:36:10,0.0
4283,20,-729,-39,-42,4,2024-01-24 14:36:10,0.0
4276,46,-782,-44,-38,-7,2024-01-24 14:36:11,0.0
4281,27,-781,-48,-37,5,2024-01-24 14:36:11,0.0
4275,42,-735,-48,-36,6,2024-01-24 14:36:11,0.0
4266,75,-852,-45,-35,6,2024-01-24 14:36:11,0.0
4256,-11,-771,-34,-32,8,2024-01-24 14:36:11,0.0
4298,74,-773,-41,-32,7,2024-01-24 14:36:11,0.0
4290,19,-793,-39,-21,12,2024-01-24 14:36:11,0.0
4254,54,-737,-29,-25,8,2024-01-24 14:36:11,0.0
4282,-10,-787,-37,-19,9,2024-01-24 14:36:11,0.0
4315,11,-800,-32,-30,7,2024-01-24 14:36:11,0.0
4272,28,-787,-37,-27,14,2024-01-24 14:36:11,0.0
4272,58,-780,-55,-20,10,2024-01-24 14:36:11,0.0
4294,19,-838,-57,-15,5,2024-01-24 14:36:11,0.0
4309,20,-850,-38,-8,7,2024-01-24 14:36:11,0.0
4166,45,-729,-34,-57,16,2024-01-24 14:36:11,0.0
4391,2,-757,-39,-93,26,2024-01-24 14:36:11,0.0
4267,-1,-828,-37,-45,25,2024-01-24 14:36:11,0.0
4357,67,-872,-24,9,7,2024-01-24 14:36:12,0.0
4239,43,-694,-43,-1,14,2024-01-24 14:36:12,0.0
4219,35,-799,-41,-38,12,2024-01-24 14:36:12,0.0
4313,18,-846,-39,-42,12,2024-01-24 14:36:12,0.0
4298,36,-778,-46,-12,8,2024-01-24 14:36:12,0.0
4270,43,-807,-52,-20,14,2024-01-24 14:36:12,0.0
4275,27,-794,-51,-8,9,2024-01-24 14:36:12,0.0
4290,-6,-725,-41,-17,9,2024-01-24 14:36:12,0.0
4287,18,-813,-42,-22,10,2024-01-24 14:36:12,0.0
4250,10,-751,-38,-19,8,2024-01-24 14:36:12,0.0
4257,0,-772,-36,-17,7,2024-01-24 14:36:12,0.0
4265,-5,-756,-37,-10,2,2024-01-24 14:36:12,0.0
4302,24,-761,-30,-5,6,2024-01-24 14:36:12,0.0
4291,51,-751,-41,-15,12,2024-01-24 14:36:12,0.0
4274,43,-755,-45,-19,7,2024-01-24 14:36:12,0.0
4320,17,-732,-38,-17,6,2024-01-24 14:36:12,0.0
4274,10,-699,-38,-16,11,2024-01-24 14:36:12,0.0
4276,64,-741,-37,-18,4,2024-01-24 14:36:12,0.0
4297,28,-737,-26,-13,5,2024-01-24 14:36:13,0.0
4285,40,-697,-43,-25,6,2024-01-24 14:36:13,0.0
4302,74,-700,-43,-25,5,2024-01-24 14:36:13,0.0
4298,36,-744,-44,-34,7,2024-01-24 14:36:13,0.0
4281,19,-744,-42,-33,5,2024-01-24 14:36:13,0.0
4289,8,-731,-37,-30,11,2024-01-24 14:36:13,0.0
4304,38,-708,-33,-33,14,2024-01-24 14:36:13,0.0
4303,48,-728,-39,-32,12,2024-01-24 14:36:13,0.0
4292,18,-747,-34,-32,15,2024-01-24 14:36:13,0.0
4295,5,-698,-34,-34,12,2024-01-24 14:36:13,0.0
4305,42,-709,-40,-33,12,2024-01-24 14:36:13,0.0
4277,38,-687,-41,-33,12,2024-01-24 14:36:13,0.0
4285,33,-774,-40,-31,11,2024-01-24 14:36:13,
4313,23,-750,-39,-25,12,2024-01-24 14:36:13,0.0
4294,45,-731,-38,-34,9,2024-01-24 14:36:13,0.0
4273,24,-722,-40,-34,10,2024-01-24 14:36:13,0.0
4291,30,-736,-38,-40,5,2024-01-24 14:36:13,0.0
4273,44,-725,-34,-39,9,2024-01-24 14:36:14,0.0
4287,8,-777,-41,-39,8,2024-01-24 14:36:14,0.0
4295,15,-710,-37,-35,9,2024-01-24 14:36:14,0.0
4289,17,-726,-36,-32,7,2024-01-24 14:36:14,0.0
4300,24,-763,-43,-33,10,2024-01-24 14:36:14,0.0
4310,21,-731,-42,-29,6,2024-01-24 14:36:14,0.0
4270,10,-749,-44,-35,12,2024-01-24 14:36:14,0.0
4287,59,-730,-50,-29,9,2024-01-24 14:36:14,0.0
4289,39,-768,-59,-31,11,2024-01-24 14:36:14,0.0
4278,15,-762,-53,-26,7,2024-01-24 14:36:14,0.0
4302,15,-756,-49,-29,8,2024-01-24 14:36:14,0.0
4294,11,-777,-35,-33,9,2024-01-24 14:36:14,0.0
4290,27,-791,-34,-19,2,2024-01-24 14:36:14,0.0
4274,15,-757,-43,-28,7,2024-01-24 14:36:14,0.0
4263,2,-782,-34,-15,4,2024-01-24 14:36:14,0.0
4277,5,-741,-34,-8,9,2024-01-24 14:36:14,0.0
4306,70,-777,-34,131,7,2024-01-24 14:36:14,0.0
4368,38,-710,-52,259,11,2024-01-24 14:36:14,0.0
4249,24,-565,-37,87,4,2024-01-24 14:36:15,0.0
4298,57,-540,-30,-40,14,2024-01-24 14:36:15,0.0
4302,49,-647,-65,-78,7,2024-01-24 14:36:15,0.0
4317,48,-645,-75,-91,6,2024-01-24 14:36:15,0.0
4332,29,-677,-68,-67,4,2024-01-24 14:36:15,0.0
4328,38,-598,-78,-45,21,2024-01-24 14:36:15,0.0
4324,57,-698,-66,-63,10,2024-01-24 14:36:15,0.0
4295,55,-706,-63,-36,0,2024-01-24 14:36:15,0.0
4307,123,-703,-55,-13,-9,2024-01-24 14:36:15,0.0
4254,186,-580,-84,-41,-25,2024-01-24 14:36:15,0.0
4295,229,-706,-118,-91,-15,2024-01-24 14:36:15,0.0
4282,198,-687,-144,-85,-11,2024-01-24 14:36:15,0.0
4327,211,-673,-134,-74,-1,2024-01-24 14:36:15,0.0
4305,134,-640,-81,-72,9,2024-01-24 14:36:15,0.0
4283,163,-681,-43,-60,-6,2024-01-24 14:36:15,0.0
4305,160,-649,-8,-15,-11,2024-01-24 14:36:15,0.0
4273,173,-682,25,-26,-18,2024-01-24 14:36:15,0.0
4296,149,-710,50,36,-16,2024-01-24 14:36:16,0.0
4282,90,-634,85,14,-17,2024-01-24 14:36:16,0.0
4301,126,-713,122,81,-5,2024-01-24 14:36:16,0.0
4226,76,-630,142,1,8,2024-01-24 14:36:16,0.0
4296,89,-737,170,-15,37,2024-01-24 14:36:16,0.0
4307,-39,-736,174,-54,58,2024-01-24 14:36:16,0.0
4326,-68,-766,185,-60,71,2024-01-24 14:36:16,0.0
4317,-37,-745,170,-11,68,2024-01-24 14:36:16,0.0
4325,-143,-688,146,15,69,2024-01-24 14:36:16,0.0
4289,-174,-625,143,-5,89,2024-01-24 14:36:16,0.0
4266,-107,-611,109,-28,95,2024-01-24 14:36:16,0.0
4279,-79,-651,27,0,106,2024-01-24 14:36:16,0.0
4356,-212,-646,7,22,95,2024-01-24 14:36:16,0.0
4320,-304,-635,0,-13,113,2024-01-24 14:36:16,0.0
4298,-266,-615,-13,-23,118,2024-01-24 14:36:16,0.0
4255,-342,-599,-34,-54,89,2024-01-24 14:36:16,0.0
4278,-363,-626,-38,-46,43,2024-01-24 14:36:16,0.0
4250,-467,-516,-30,-18,-4,2024-01-24 14:36:16,0.0
4347,-353,-642,-69,-16,-54,2024-01-24 14:36:17,0.0
4295,-541,-560,-50,17,-44,2024-01-24 14:36:17,0.0
4366,-467,-623,-37,109,-71,2024-01-24 14:36:17,0.0
4184,-392,-464,-22,129,-67,2024-01-24 14:36:17,0.0
4248,-394,-444,4,-44,-78,2024-01-24 14:36:17,0.0
4489,-295,-663,49,-52,-15,2024-01-24 14:36:17,0.0
4228,-237,-557,77,80,22,2024-01-24 14:36:17,0.0
4238,-184,-489,88,17,24,2024-01-24 14:36:17,0.0
4350,-141,-592,130,70,67,2024-01-24 14:36:17,0.0
4165,-57,-421,100,41,129,2024-01-24 14:36:17,0.0
4272,-19,-409,215,51,146,2024-01-24 14:36:17,0.0
4781,261,-565,56,-71,14,2024-01-24 14:36:17,0.0
4635,110,-331,-80,124,-176,2024-01-24 14:36:17,0.0
4113,228,-432,-107,22,-287,2024-01-24 14:36:17,0.0
4083,390,-439,-167,-4,-190,2024-01-24 14:36:17,0.0
4406,242,-321,-106,-58,-14,2024-01-24 14:36:17,0.0
4335,143,-306,-30,-13,-37,2024-01-24 14:36:17,0.0
4338,276,-352,43,-43,-22,2024-01-24 14:36:18,0.0
4316,241,-459,33,-59,-13,2024-01-24 14:36:18,0.0
4322,133,-342,84,-21,-5,2024-01-24 14:36:18,0.0
4315,103,-417,165,-18,13,2024-01-24 14:36:18,0.0
4270,222,-440,191,-5,39,2024-01-24 14:36:18,0.0
4283,382,-466,124,-27,64,2024-01-24 14:36:18,0.0
4410,321,-575,16,21,75,2024-01-24 14:36:18,0.0
4567,361,-699,-83,154,81,2024-01-24 14:36:18,0.0
4115,129,-473,-336,821,110,2024-01-24 14:36:18,0.0
4317,251,-212,-308,183,10,2024-01-24 14:36:18,0.0
4138,350,-85,-491,51,-19,2024-01-24 14:36:18,0.0
4216,18,188,-489,-158,-47,2024-01-24 14:36:18,0.0
4238,-246,128,-315,-267,-104,2024-01-24 14:36:18,0.0
4385,-133,-65,-152,-148,-117,2024-01-24 14:36:18,0.0
4274,-348,-132,-26,89,-84,2024-01-24 14:36:18,0.0
4175,-368,116,91,-83,-105,2024-01-24 14:36:18,0.0
4590,-239,119,251,-437,27,2024-01-24 14:36:18,0.0
4466,-116,-296,252,-358,185,2024-01-24 14:36:18,0.0
4504,-439,-282,156,312,175,2024-01-24 14:36:19,0.0
4273,-526,-17,249,64,151,2024-01-24 14:36:19,0.0
4294,-443,-162,376,-9,102,2024-01-24 14:36:19,0.0
4322,-275,-177,414,-129,64,2024-01-24 14:36:19,0.0
4371,-345,-331,422,-23,79,2024-01-24 14:36:19,0.0
4453,-286,-408,424,-114,97,2024-01-24 14:36:19,0.0
4350,-277,-423,394,-90,83,2024-01-24 14:36:19,0.0
4363,-329,-320,395,-23,72,2024-01-24 14:36:19,
4381,-305,-391,357,-24,33,2024-01-24 14:36:19,0.0
4309,-168,-192,251,1,40,2024-01-24 14:36:19,0.0
4280,-223,-151,65,-57,24,2024-01-24 14:36:19,0.0
4324,-318,-100,-89,-129,29,2024-01-24 14:36:19,0.0
4239,-324,-241,-189,-172,-25,2024-01-24 14:36:19,0.0
4379,-448,-209,-262,-238,-56,2024-01-24 14:36:19,0.0
4368,-475,-189,-302,8,-117,2024-01-24 14:36:19,0.0
4454,-135,-344,-418,-133,-135,2024-01-24 14:36:19,0.0
4481,-249,-350,-432,2,33,2024-01-24 14:36:19,0.0
4112,-525,-228,-383,-88,70,2024-01-24 14:36:20,0.0
4517,-366,-380,-268,-27,46,2024-01-24 14:36:20,0.0
4357,-152,-456,-286,303,-4,2024-01-24 14:36:20,0.0
4259,-179,-307,-308,112,47,2024-01-24 14:36:20,0.0
4148,-396,-356,-237,95,93,2024-01-24 14:36:20,0.0
4213,-161,-254,-149,-10,113,2024-01-24 14:36:20,0.0
4245,-327,-240,-73,61,127,2024-01-24 14:36:20,0.0
4373,-31,-217,-119,-12,39,2024-01-24 14:36:20,0.0
4460,-129,-254,-83,-25,4,2024-01-24 14:36:20,0.0
4389,130,-168,-110,20,-102,2024-01-24 14:36:20,0.0
4277,105,-107,-105,-39,-86,2024-01-24 14:36:20,0.0
4389,3,-218,-78,-36,-68,2024-01-24 14:36:20,0.0
4345,108,-238,-100,-29,-88,2024-01-24 14:36:20,0.0
4365,176,-342,-208,-42,-79,2024-01-24 14:36:20,0.0
4306,138,-242,-318,-44,-57,2024-01-24 14:36:20,0.0
4341,57,-205,-320,-69,-19,2024-01-24 14:36:20,0.0
4392,-3,-179,-286,-84,-36,2024-01-24 14:36:20,0.0
4348,112,-261,-334,-72,-58,2024-01-24 14:36:20,0.0
4281,128,-285,-406,-47,-27,2024-01-24 14:36:21,0.0
4273,104,-345,-436,-95,14,2024-01-24 14:36:21,0.0
4383,73,-234,-463,-86,30,2024-01-24 14:36:21,0.0
4370,-32,-223,-428,-99,3,2024-01-24 14:36:21,0.0
4352,-41,-268,-376,-63,4,2024-01-24 14:36:21,0.0
4311,-68,-283,-264,-98,6,2024-01-24 14:36:21,0.0
4387,27,-321,-179,-49,-1,2024-01-24 14:36:21,0.0
4284,-25,-282,-120,-65,8,2024-01-24 14:36:21,0.0
4343,-23,-286,-60,-84,3,2024-01-24 14:36:21,0.0
4361,-93,-368,-5,-64,-9,2024-01-24 14:36:21,0.0
4299,-38,-336,21,-67,2,2024-01-24 14:36:21,0.0
4290,1,-372,44,-35,16,2024-01-24 14:36:21,0.0
4344,-2,-345,35,-36,32,2024-01-24 14:36:21,0.0
4335,-51,-345,44,-18,17,2024-01-24 14:36:21,0.0
4330,-52,-349,63,-21,25,2024-01-24 14:36:21,0.0
4374,12,-384,89,27,17,2024-01-24 14:36:21,0.0
4334,-7,-345,80,-31,9,2024-01-24 14:36:21,0.0
4348,-2,-333,106,14,-1,2024-01-24 14:36:22,0.0
4317,-16,-403,130,-44,6,2024-01-24 14:36:22,0.0
4327,30,-346,150,-25,12,2024-01-24 14:36:22,0.0
4322,29,-389,130,-19,-5,2024-01-24 14:36:22,0.0
4277,-32,-399,115,-22,7,2024-01-24 14:36:22,0.0
4327,-97,-329,127,-33,8,2024-01-24 14:36:22,0.0
4299,-163,-296,210,-51,-20,2024-01-24 14:36:22,0.0
4336,-183,-359,325,-74,-70,2024-01-24 14:36:22,0.0
4308,38,-470,340,-94,-107,2024-01-24 14:36:22,0.0
4299,131,-492,236,-75,-56,2024-01-24 14:36:22,0.0
4278,267,-625,36,-54,-1,2024-01-24 14:36:22,0.0
4300,223,-486,-168,-53,57,2024-01-24 14:36:22,0.0
4329,104,-429,-269,-3,67,2024-01-24 14:36:22,0.0
4333,5,-430,-278,11,57,2024-01-24 14:36:22,0.0
4333,-20,-398,-286,11,24,2024-01-24 14:36:22,0.0
4293,-29,-372,-252,-11,36,2024-01-24 14:36:22,0.0
4326,-84,-338,-257,-21,48,2024-01-24 14:36:22,0.0
4342,-199,-278,-135,-41,28,2024-01-24 14:36:22,0.0
4296,-288,-174,111,-59,3,2024-01-24 14:36:23,0.0
4322,-208,-325,305,-24,19,2024-01-24 14:36:23,0.0
4312,13,-403,327,-21,12,2024-01-24 14:36:23,0.0
4317,78,-351,228,-10,37,2024-01-24 14:36:23,0.0
4346,79,-358,108,-30,31,2024-01-24 14:36:23,0.0
4389,112,-431,-8,-9,26,2024-01-24 14:36:23,0.0
4329,44,-349,-106,24,25,2024-01-24 14:36:23,0.0
4354,-15,-362,-148,30,29,2024-01-24 14:36:23,0.0
4337,-67,-299,-160,29,18,2024-01-24 14:36:23,0.0
4321,-91,-347,-142,25,24,2024-01-24 14:36:23,0.0
4349,-91,-223,-132,-21,20,2024-01-24 14:36:23,0.0
4330,-71,-272,-125,-7,6,2024-01-24 14:36:23,0.0
4337,-108,-257,-102,-39,3,2024-01-24 14:36:23,0.0
4305,-94,-292,-70,-14,14,2024-01-24 14:36:23,0.0
4362,-52,-275,-75,-11,7,2024-01-24 14:36:23,0.0
4309,-35,-221,-91,-51,8,2024-01-24 14:36:23,0.0
4345,-59,-250,-95,-46,5,2024-01-24 14:36:23,0.0
4355,-98,-279,-87,-38,12,2024-01-24 14:36:24,0.0
4328,-42,-274,-105,2,28,2024-01-24 14:36:24,0.0
4328,-93,-158,-113,-29,8,2024-01-24 14:36:24,0.0
4378,-55,-242,-96,-18,-6,2024-01-24 14:36:24,0.0
4289,-50,-288,-83,-27,15,2024-01-24 14:36:24,0.0
4374,-14,-323,-103,-52,1,2024-01-24 14:36:24,0.0
4302,-39,-356,-113,-57,5,2024-01-24 14:36:24,0.0
4322,-64,-364,-102,-87,3,2024-01-24 14:36:24,0.0
4347,-82,-382,-82,-58,7,2024-01-24 14:36:24,0.0
4313,-112,-324,-57,-55,8,2024-01-24 14:36:24,0.0
4356,-25,-359,-56,-86,2,2024-01-24 14:36:24,0.0
4363,-60,-379,-52,-72,8,2024-01-24 14:36:24,0.0
4344,-34,-406,-63,-77,2,2024-01-24 14:36:24,0.0
4341,-67,-353,-51,-47,-4,2024-01-24 14:36:24,0.0
4399,-44,-445,-38,-34,-6,2024-01-24 14:36:24,0.0
4351,-20,-416,-48,-24,-13,2024-01-24 14:36:24,0.0
4338,6,-452,-68,-29,-5,2024-01-24 14:36:24,0.0
4300,-41,-391,-50,-36,-13,2024-01-24 14:36:24,0.0
4331,-24,-392,-43,-38,-8,2024-01-24 14:36:25,0.0
4335,-47,-362,-20,-34,3,2024-01-24 14:36:25,0.0
4351,-32,-413,-35,-27,-1,2024-01-24 14:36:25,
4288,-56,-307,-38,-37,-2,2024-01-24 14:36:25,0.0
4357,-76,-423,-14,-41,6,2024-01-24 14:36:25,0.0
4348,-39,-371,-11,-17,-16,2024-01-24 14:36:25,0.0
4380,-11,-420,-19,64,-5,2024-01-24 14:36:25,0.0
4363,-19,-390,-43,129,-12,2024-01-24 14:36:25,0.0
4237,29,-328,-37,25,18,2024-01-24 14:36:25,0.0
4358,49,-410,-75,-7,29,2024-01-24 14:36:25,0.0
4275,57,-413,-91,-19,27,2024-01-24 14:36:25,0.0
4305,84,-322,-138,-86,40,2024-01-24 14:36:25,0.0
4412,-7,-196,-168,-113,3,2024-01-24 14:36:25,0.0
4362,-9,-202,-140,-80,-34,2024-01-24 14:36:25,0.0
4253,55,-345,-77,-55,-16,2024-01-24 14:36:25,0.0
4431,97,-334,-109,-123,-19,2024-01-24 14:36:25,0.0
4288,110,-364,-191,-145,-67,2024-01-24 14:36:25,0.0
4327,133,-427,-211,-88,-45,2024-01-24 14:36:26,0.0
4338,137,-411,-229,-72,-8,2024-01-24 14:36:26,0.0
4354,109,-476,-233,-1,16,2024-01-24 14:36:26,0.0
4388,24,-390,-199,34,-21,2024-01-24 14:36:26,0.0
4304,160,-254,-221,-131,-58,2024-01-24 14:36:26,0.0
4266,189,-394,-241,-113,-55,2024-01-24 14:36:26,0.0
4322,80,-470,-181,-91,15,2024-01-24 14:36:26,0.0
4441,134,-578,-154,-8,34,2024-01-24 14:36:26,0.0
4220,143,-498,-161,-39,21,2024-01-24 14:36:26,0.0
4306,151,-454,-142,-99,6,2024-01-24 14:36:26,0.0
4282,81,-503,-98,-112,-1,2024-01-24 14:36:26,0.0
4295,97,-551,-36,-59,51,2024-01-24 14:36:26,0.0
4342,127,-579,-12,-58,66,2024-01-24 14:36:26,0.0
4332,68,-467,-2,-68,48,2024-01-24 14:36:26,0.0
4306,50,-378,59,-79,24,2024-01-24 14:36:26,0.0
4356,59,-509,90,-60,18,2024-01-24 14:36:26,0.0
4324,132,-556,52,-6,-4,2024-01-24 14:36:26,0.0
4316,182,-508,8,-7,5,2024-01-24 14:36:27,0.0
4339,28,-453,15,0,-2,2024-01-24 14:36:27,0.0
4312,27,-465,47,-15,-8,2024-01-24 14:36:27,0.0
4259,107,-473,76,-67,19,2024-01-24 14:36:27,0.0
4341,122,-553,94,-82,34,2024-01-24 14:36:27,0.0
4403,305,-611,48,34,33,2024-01-24 14:36:27,0.0
4320,245,-651,20,26,-1,2024-01-24 14:36:27,0.0
4330,154,-808,-78,9,-28,2024-01-24 14:36:27,0.0
4360,180,-832,-189,107,-14,2024-01-24 14:36:27,0.0
4392,1031,-437,-455,-56,-15,2024-01-24 14:36:27,0.0
4410,-735,-318,-295,6,132,2024-01-24 14:36:27,0.0
4651,281,-319,41,72,46,2024-01-24 14:36:27,0.0
4133,-55,-387,128,-165,2,2024-01-24 14:36:27,0.0
4409,181,-508,122,-85,-8,2024-01-24 14:36:27,0.0
4359,45,-603,132,-101,37,2024-01-24 14:36:27,0.0
4329,104,-444,160,102,13,2024-01-24 14:36:27,0.0
4211,166,-444,105,5,2,2024-01-24 14:36:27,0.0
4315,51,-532,96,5,14,2024-01-24 14:36:27,0.0
4254,13,-459,128,-2,13,2024-01-24 14:36:28,0.0
4357,130,-460,175,-58,23,2024-01-24 14:36:28,0.0
4356,-21,-466,189,-59,51,2024-01-24 14:36:28,0.0
4350,-34,-453,200,-17,16,2024-01-24 14:36:28,0.0
4347,-47,-433,200,-18,38,2024-01-24 14:36:28,0.0
4287,-108,-433,181,-49,25,2024-01-24 14:36:28,0.0
4290,13,-493,140,-89,9,2024-01-24 14:36:28,0.0
4328,-64,-484,111,-112,14,2024-01-24 14:36:28,0.0
4313,-72,-495,65,-97,4,2024-01-24 14:36:28,0.0
4320,-123,-531,32,-100,7,2024-01-24 14:36:28,0.0
4353,-108,-525,10,-71,2,2024-01-24 14:36:28,0.0
4319,-163,-580,8,-58,9,2024-01-24 14:36:28,0.0
4350,-141,-663,15,-33,15,2024-01-24 14:36:28,0.0
4284,-92,-584,4,-33,15,2024-01-24 14:36:28,0.0
4331,-157,-585,-10,-52,21,2024-01-24 14:36:28,0.0
4339,-65,-624,-44,-50,34,2024-01-24 14:36:28,0.0
4259,-101,-514,-85,-30,29,2024-01-24 14:36:28,0.0
4280,-173,-714,-65,-112,-1,2024-01-24 14:36:29,0.0
4247,-142,-671,-11,-108,-6,2024-01-24 14:36:29,0.0
4323,-54,-665,-21,-128,-1,2024-01-24 14:36:29,0.0
4359,22,-698,-77,-53,15,2024-01-24 14:36:29,0.0
4318,-78,-709,-111,7,19,2024-01-24 14:36:29,0.0
4355,-105,-677,-85,30,9,2024-01-24 14:36:29,0.0
4311,4,-583,-75,73,3,2024-01-24 14:36:29,0.0
4163,-25,-536,-139,-59,25,2024-01-24 14:36:29,0.0
4283,-25,-548,-212,-103,27,2024-01-24 14:36:29,0.0
4290,-65,-620,-272,-117,24,2024-01-24 14:36:29,0.0
4307,-152,-676,-243,-74,17,2024-01-24 14:36:29,0.0
4304,-129,-710,-177,-49,-23,2024-01-24 14:36:29,0.0
4313,-51,-794,-115,-33,-28,2024-01-24 14:36:29,0.0
4341,105,-773,-120,-8,-15,2024-01-24 14:36:29,0.0
4275,49,-596,-171,63,33,2024-01-24 14:36:29,0.0
4298,75,-596,-187,-10,12,2024-01-24 14:36:29,0.0
4283,16,-637,-173,1,-2,2024-01-24 14:36:29,0.0
4287,49,-682,-157,-25,-8,2024-01-24 14:36:29,0.0
4313,80,-713,-189,-32,11,2024-01-24 14:36:30,0.0
4279,37,-698,-216,-35,18,2024-01-24 14:36:30,0.0
4298,-8,-676,-207,-13,18,2024-01-24 14:36:30,0.0
4288,-47,-675,-193,-30,17,2024-01-24 14:36:30,0.0
4257,37,-627,-163,-56,-4,2024-01-24 14:36:30,0.0
4300,151,-671,-185,-59,-14,2024-01-24 14:36:30,0.0
4334,122,-671,-163,-57,-7,2024-01-24 14:36:30,0.0
4281,155,-607,-113,-6,-15,2024-01-24 14:36:30,0.0
4308,184,-592,-65,-13,-6,2024-01-24 14:36:30,0.0
4309,209,-593,-54,-6,1,2024-01-24 14:36:30,0.0
4306,174,-653,-38,-25,6,2024-01-24 14:36:30,0.0
4287,158,-654,-21,-5,9,2024-01-24 14:36:30,0.0
4300,96,-625,15,-20,20,2024-01-24 14:36:30,0.0
4319,56,-626,66,4,35,2024-01-24 14:36:30,0.0
4300,14,-606,117,4,33,2024-01-24 14:36:30,0.0
4324,6,-633,155,-4,18,2024-01-24 14:36:30,
4272,-13,-650,179,-2,8,2024-01-24 14:36:30,0.0
4307,-22,-651,204,-32,4,2024-01-24 14:36:31,0.0
4326,18,-587,211,-9,0,2024-01-24 14:36:31,0.0
4274,40,-626,196,-32,-1,2024-01-24 14:36:31,0.0
4337,89,-633,142,-43,4,2024-01-24 14:36:31,0.0
4328,37,-634,114,-9,7,2024-01-24 14:36:31,0.0
4293,35,-604,116,-13,24,2024-01-24 14:36:31,0.0
4325,-3,-633,102,6,27,2024-01-24 14:36:31,0.0
4324,10,-608,73,21,31,2024-01-24 14:36:31,0.0
4413,-35,-667,37,24,47,2024-01-24 14:36:31,0.0
4234,-111,-516,20,0,52,2024-01-24 14:36:31,0.0
4351,-91,-560,-19,-16,27,2024-01-24 14:36:31,0.0
4306,-84,-565,-33,-80,33,2024-01-24 14:36:31,0.0
4371,-101,-661,-34,-74,24,2024-01-24 14:36:31,0.0
4310,-46,-585,-76,-27,-1,2024-01-24 14:36:31,0.0
4267,-69,-619,-109,-80,-9,2024-01-24 14:36:31,0.0
4290,-67,-658,-155,-82,-6,2024-01-24 14:36:31,0.0
4360,-60,-604,-179,-33,-22,2024-01-24 14:36:31,0.0
4278,-57,-660,-200,-25,-27,2024-01-24 14:36:31,0.0
4305,-9,-633,-222,7,-20,2024-01-24 14:36:32,0.0
4416,24,-739,-227,473,13,2024-01-24 14:36:32,0.0
4354,-27,-427,-294,545,14,2024-01-24 14:36:32,0.0
4264,155,-261,-366,369,-21,2024-01-24 14:36:32,0.0
4499,212,-261,-716,309,-2,2024-01-24 14:36:32,0.0
4255,-14,-145,-857,92,11,2024-01-24 14:36:32,0.0
4437,-21,-123,-943,155,-31,2024-01-24 14:36:32,0.0
4385,-243,-148,-893,44,-16,2024-01-24 14:36:32,0.0
4374,-192,-147,-822,6,38,2024-01-24 14:36:32,0.0
4232,108,-153,-1000,40,-4,2024-01-24 14:36:32,0.0
4245,202,-23,-1256,-201,-50,2024-01-24 14:36:32,0.0
4592,-106,-302,-1270,-66,-71,2024-01-24 14:36:32,0.0
4033,-288,9,-1099,-19,-13,2024-01-24 14:36:32,0.0
4286,738,-267,-1255,-250,-54,2024-01-24 14:36:32,0.0
4242,-478,324,-1024,-16,36,2024-01-24 14:36:32,0.0
4387,303,43,-879,34,-163,2024-01-24 14:36:32,0.0
4019,146,305,-765,-346,33,2024-01-24 14:36:32,0.0
4815,-60,67,-621,50,-73,2024-01-24 14:36:33,0.0
4386,285,266,-582,106,-210,2024-01-24 14:36:33,0.0
4020,57,271,-432,-120,-54,2024-01-24 14:36:33,0.0
4440,414,53,-393,-161,-120,2024-01-24 14:36:33,0.0
4368,289,60,-358,-169,6,2024-01-24 14:36:33,0.0
4546,344,-73,-262,53,-32,2024-01-24 14:36:33,0.0
4097,271,-47,-222,-114,-16,2024-01-24 14:36:33,0.0
4337,495,-144,-294,-227,-5,2024-01-24 14:36:33,0.0
4314,314,-61,-278,-245,21,2024-01-24 14:36:33,0.0
4566,121,-233,-161,-66,17,2024-01-24 14:36:33,0.0
4385,51,19,17,41,29,2024-01-24 14:36:33,0.0
4050,289,16,128,-52,31,2024-01-24 14:36:33,0.0
4510,288,-180,158,-150,65,2024-01-24 14:36:33,0.0
4212,197,-96,230,-146,26,2024-01-24 14:36:33,0.0
4445,241,-228,244,-175,49,2024-01-24 14:36:33,0.0
4332,170,-311,299,-20,42,2024-01-24 14:36:33,0.0
4319,149,-299,309,-106,52,2024-01-24 14:36:33,0.0
4282,164,-355,266,-184,56,2024-01-24 14:36:33,0.0
4353,67,-430,241,-168,61,2024-01-24 14:36:34,0.0
4353,56,-416,259,-123,46,2024-01-24 14:36:34,0.0
4421,-122,-503,377,-54,38,2024-01-24 14:36:34,0.0
4295,19,-375,445,-26,22,2024-01-24 14:36:34,0.0
4309,54,-546,449,-101,42,2024-01-24 14:36:34,0.0
4315,64,-518,410,-96,33,2024-01-24 14:36:34,0.0
4277,27,-503,379,-156,40,2024-01-24 14:36:34,0.0
4342,-3,-594,334,-154,20,2024-01-24 14:36:34,0.0
4351,43,-623,303,-141,11,2024-01-24 14:36:34,0.0
4377,17,-693,247,-8,4,2024-01-24 14:36:34,0.0
4274,77,-647,201,-17,7,2024-01-24 14:36:34,0.0
4318,-14,-607,185,6,26,2024-01-24 14:36:34,0.0
4306,32,-560,113,-10,20,2024-01-24 14:36:34,0.0
4332,67,-661,81,-19,10,2024-01-24 14:36:34,0.0
4288,-11,-568,32,-28,2,2024-01-24 14:36:34,0.0
4239,-1,-547,19,-70,-6,2024-01-24 14:36:34,0.0
4248,-19,-641,24,-181,-17,2024-01-24 14:36:34,0.0
4366,-22,-755,46,-162,-11,2024-01-24 14:36:35,0.0
4378,16,-723,63,-18,-23,2024-01-24 14:36:35,0.0
4321,62,-700,33,35,-19,2024-01-24 14:36:35,0.0
4238,10,-732,71,-19,-11,2024-01-24 14:36:35,0.0
4287,-33,-642,123,-64,-18,2024-01-24 14:36:35,0.0
4321,130,-633,119,-84,-27,2024-01-24 14:36:35,0.0
4273,-60,-642,160,-99,-7,2024-01-24 14:36:35,0.0
4358,95,-613,132,-44,-22,2024-01-24 14:36:35,0.0
4289,-114,-588,179,-94,9,2024-01-24 14:36:35,0.0
4310,-67,-727,197,-77,-7,2024-01-24 14:36:35,0.0
4316,-179,-620,211,-88,-7,2024-01-24 14:36:35,0.0
4301,39,-704,119,-96,12,2024-01-24 14:36:35,0.0
4246,6,-670,-7,-59,-9,2024-01-24 14:36:35,0.0
4291,-284,-633,-3,-87,-24,2024-01-24 14:36:35,0.0
4364,-139,-680,61,-28,-35,2024-01-24 14:36:35,0.0
4279,97,-706,-98,7,11,2024-01-24 14:36:35,0.0
4361,-122,-638,-89,-15,7,2024-01-24 14:36:35,0.0
4247,-41,-688,-80,36,12,2024-01-24 14:36:35,0.0
4355,80,-711,-58,54,11,2024-01-24 14:36:36,0.0
4299,88,-780,-93,43,34,2024-01-24 14:36:36,0.0
4157,153,-747,-123,88,19,2024-01-24 14:36:36,0.0
4325,0,-772,-82,12,36,2024-01-24 14:36:36,0.0
4260,2,-684,-76,-2,24,2024-01-24 14:36:36,0.0
4252,59,-746,-38,-80,19,2024-01-24 14:36:36,0.0
4289,14,-751,-50,-33,46,2024-01-24 14:36:36,0.0
4294,-21,-743,-8,-115,17,2024-01-24 14:36:36,0.0
4218,55,-737,-33,-98,29,2024-01-24 14:36:36,0.0
4309,54,-781,-63,-137,38,2024-01-24 14:36:36,0.0
4256,43,-811,-123,-151,69,2024-01-24 14:36:36,
4324,-31,-829,-156,-127,73,2024-01-24 14:36:36,0.0
4285,-57,-868,-172,-110,67,2024-01-24 14:36:36,0.0
4273,-219,-798,-111,-103,50,2024-01-24 14:36:36,0.0
4259,-88,-839,-64,-71,43,2024-01-24 14:36:36,0.0
4352,-219,-766,4,-41,48,2024-01-24 14:36:36,0.0
4252,-263,-780,78,-19,31,2024-01-24 14:36:36,0.0
4255,-164,-815,128,-11,-9,2024-01-24 14:36:37,0.0
4294,-174,-818,143,10,-24,2024-01-24 14:36:37,0.0
4266,-203,-819,177,-16,-21,2024-01-24 14:36:37,0.0
4209,-181,-816,206,-10,-58,2024-01-24 14:36:37,0.0
4331,-72,-810,191,-32,-26,2024-01-24 14:36:37,0.0
4289,-101,-828,175,8,-11,2024-01-24 14:36:37,0.0
4261,13,-866,83,2,-7,2024-01-24 14:36:37,0.0
4268,-42,-803,18,18,14,2024-01-24 14:36:37,0.0
4260,-63,-849,-64,11,15,2024-01-24 14:36:37,0.0
4264,-108,-804,-109,-3,33,2024-01-24 14:36:37,0.0
4237,-112,-845,-125,-38,31,2024-01-24 14:36:37,0.0
4322,-101,-755,-154,2,34,2024-01-24 14:36:37,0.0
4274,-148,-824,-167,13,30,2024-01-24 14:36:37,0.0
4272,-216,-791,-163,-16,20,2024-01-24 14:36:37,0.0
4255,-204,-768,-113,-12,9,2024-01-24 14:36:37,0.0
4289,-144,-759,-95,-35,-6,2024-01-24 14:36:37,0.0
4286,-210,-771,-37,-15,11,2024-01-24 14:36:37,0.0
4282,-140,-719,-49,-5,-14,2024-01-24 14:36:37,0.0
4258,-169,-768,-3,10,-6,2024-01-24 14:36:38,0.0
4252,-113,-731,-2,-6,-27,2024-01-24 14:36:38,0.0
4270,-98,-666,-4,-67,-22,2024-01-24 14:36:38,0.0
4257,-66,-684,-14,-78,-21,2024-01-24 14:36:38,0.0
4342,-57,-690,-59,-63,-10,2024-01-24 14:36:38,0.0
4360,-107,-674,-57,-13,0,2024-01-24 14:36:38,0.0
4306,-90,-782,-91,33,3,2024-01-24 14:36:38,0.0
4262,-93,-804,-73,10,10,2024-01-24 14:36:38,0.0
4186,-72,-696,-65,-47,-8,2024-01-24 14:36:38,0.0
4283,-48,-693,-69,-92,-11,2024-01-24 14:36:38,0.0
4309,-59,-761,-77,-77,3,2024-01-24 14:36:38,0.0
4283,-76,-776,-70,-26,9,2024-01-24 14:36:38,0.0
4283,-41,-758,-75,-16,11,2024-01-24 14:36:38,0.0
4290,-17,-723,-101,-37,15,2024-01-24 14:36:38,0.0
4271,4,-748,-123,-32,29,2024-01-24 14:36:38,0.0
4259,-58,-785,-135,-18,24,2024-01-24 14:36:38,0.0
4299,-30,-803,-110,-20,21,2024-01-24 14:36:38,0.0
4265,-92,-762,-103,-38,2,2024-01-24 14:36:39,0.0
4258,-85,-777,-68,-82,15,2024-01-24 14:36:39,0.0
4300,-84,-756,-48,-69,17,2024-01-24 14:36:39,0.0
4333,-30,-790,-34,-45,19,2024-01-24 14:36:39,0.0
4290,-67,-784,-19,-15,7,2024-01-24 14:36:39,0.0
4270,-54,-763,-12,27,2,2024-01-24 14:36:39,0.0
4321,-47,-800,-3,25,15,2024-01-24 14:36:39,0.0
4307,-66,-815,-23,40,3,2024-01-24 14:36:39,0.0
4236,-36,-758,-23,3,8,2024-01-24 14:36:39,0.0
4184,-93,-709,-18,-30,-15,2024-01-24 14:36:39,0.0
4310,-35,-690,-17,-100,0,2024-01-24 14:36:39,0.0
4343,-100,-782,-24,-69,26,2024-01-24 14:36:39,0.0
4323,-51,-795,-26,35,13,2024-01-24 14:36:39,0.0
4278,-34,-791,-29,54,7,2024-01-24 14:36:39,0.0
4216,-54,-762,-29,3,-2,2024-01-24 14:36:39,0.0
4223,-81,-690,-31,-87,10,2024-01-24 14:36:39,0.0
4332,-20,-703,-39,-147,7,2024-01-24 14:36:39,0.0
4348,-47,-741,-66,-57,16,2024-01-24 14:36:39,0.0
4367,-73,-793,-65,5,21,2024-01-24 14:36:40,0.0
4239,-87,-716,-71,37,10,2024-01-24 14:36:40,0.0
4234,-49,-732,-59,-44,8,2024-01-24 14:36:40,0.0
4292,-55,-719,-53,-65,6,2024-01-24 14:36:40,0.0
4316,-90,-811,-66,-30,20,2024-01-24 14:36:40,0.0
4332,-91,-784,-52,68,21,2024-01-24 14:36:40,0.0
4281,-35,-720,-59,49,11,2024-01-24 14:36:40,0.0
4227,-83,-707,-22,-24,-3,2024-01-24 14:36:40,0.0
4298,-19,-680,-25,-85,-1,2024-01-24 14:36:40,0.0
4313,-76,-725,-22,-54,14,2024-01-24 14:36:40,0.0
4328,-47,-683,-19,-31,11,2024-01-24 14:36:40,0.0
4248,-53,-742,-24,-31,6,2024-01-24 14:36:40,0.0
4278,-40,-754,-43,-47,-6,2024-01-24 14:36:40,0.0
4307,-15,-750,-47,-73,4,2024-01-24 14:36:40,0.0
4288,-37,-730,-70,-53,7,2024-01-24 14:36:40,0.0
4300,-49,-781,-82,-31,11,2024-01-24 14:36:40,0.0
4274,-53,-738,-72,-18,15,2024-01-24 14:36:40,0.0
4252,-43,-776,-63,-34,4,2024-01-24 14:36:41,0.0
4291,-57,-778,-57,-67,9,2024-01-24 14:36:41,0.0
4294,-71,-758,-44,-52,15,2024-01-24 14:36:41,0.0
4285,-48,-770,-27,-31,7,2024-01-24 14:36:41,0.0
4301,-18,-768,-23,-21,4,2024-01-24 14:36:41,0.0
4260,-69,-779,-17,-40,6,2024-01-24 14:36:41,0.0
4303,-44,-820,-20,-37,15,2024-01-24 14:36:41,0.0
4288,-30,-793,-18,-42,10,2024-01-24 14:36:41,0.0
4272,-60,-790,-26,-26,16,2024-01-24 14:36:41,0.0
4268,-49,-795,-23,-42,13,2024-01-24 14:36:41,0.0
4281,-64,-794,-25,-38,13,2024-01-24 14:36:41,0.0
4251,-67,-792,-28,-42,11,2024-01-24 14:36:41,0.0
4297,-39,-766,-28,-38,11,2024-01-24 14:36:41,0.0
4247,-72,-775,-32,-31,-1,2024-01-24 14:36:41,0.0
4280,-79,-733,-47,-39,-2,2024-01-24 14:36:41,0.0
4315,-65,-790,-51,-32,4,2024-01-24 14:36:41,0.0
4248,5,-788,-39,-6,13,2024-01-24 14:36:41,0.0
4281,-65,-754,-74,-11,-1,2024-01-24 14:36:41,0.0
4294,-104,-796,-56,-9,17,2024-01-24 14:36:42,0.0
4308,-51,-810,-48,-23,14,2024-01-24 14:36:42,0.0
4270,-55,-759,-44,-16,2,2024-01-24 14:36:42,0.0
4293,-69,-771,-27,-18,5,2024-01-24 14:36:42,0.0
4276,-17,-759,-22,-14,-1,2024-01-24 14:36:42,0.0
4313,-37,-725,-28,-4,5,2024-01-24 14:36:42,
4295,-24,-696,-36,7,12,2024-01-24 14:36:42,0.0
4322,-41,-717,-38,2,9,2024-01-24 14:36:42,0.0
4312,-38,-729,-45,3,10,2024-01-24 14:36:42,0.0
4282,-40,-736,-40,-15,12,2024-01-24 14:36:42,0.0
4269,-71,-755,-29,-4,5,2024-01-24 14:36:42,0.0
4266,-38,-754,-16,-30,6,2024-01-24 14:36:42,0.0
4293,-46,-720,-17,-33,5,2024-01-24 14:36:42,0.0
4305,-44,-767,-17,-38,10,2024-01-24 14:36:42,0.0
4306,-22,-746,-20,-31,6,2024-01-24 14:36:42,0.0
4282,-47,-723,-40,-23,12,2024-01-24 14:36:42,0.0
4289,-66,-744,-27,-35,10,2024-01-24 14:36:42,0.0
4267,-53,-744,-21,-39,6,2024-01-24 14:36:43,0.0
4297,-53,-723,-20,-58,6,2024-01-24 14:36:43,0.0
4283,-63,-708,-10,-44,2,2024-01-24 14:36:43,0.0
4292,-34,-736,-6,-31,4,2024-01-24 14:36:43,0.0
4272,-20,-723,-10,-21,8,2024-01-24 14:36:43,0.0
4270,-11,-758,-36,-16,7,2024-01-24 14:36:43,0.0
4309,-47,-737,-55,-23,2,2024-01-24 14:36:43,0.0
4283,-20,-720,-67,-28,13,2024-01-24 14:36:43,0.0
4268,-33,-726,-70,-18,9,2024-01-24 14:36:43,0.0
4296,-68,-712,-65,-16,10,2024-01-24 14:36:43,0.0
4289,-41,-716,-60,-14,9,2024-01-24 14:36:43,0.0
4298,-39,-739,-54,-35,9,2024-01-24 14:36:43,0.0
4273,-4,-713,-48,-28,12,2024-01-24 14:36:43,0.0
4278,-67,-720,-44,-18,9,2024-01-24 14:36:43,0.0
4282,-38,-691,-40,-20,8,2024-01-24 14:36:43,0.0
4277,-12,-703,-44,-21,10,2024-01-24 14:36:43,0.0
4304,-19,-720,-50,-18,4,2024-01-24 14:36:43,0.0
4294,-22,-747,-53,-21,7,2024-01-24 14:36:43,0.0
4287,-31,-712,-50,-22,6,2024-01-24 14:36:44,0.0
4315,-34,-686,-57,-24,5,2024-01-24 14:36:44,0.0
4303,-37,-792,-54,-13,14,2024-01-24 14:36:44,0.0
4302,-44,-703,-51,-18,15,2024-01-24 14:36:44,0.0
4293,-44,-688,-44,-24,14,2024-01-24 14:36:44,0.0
4271,-53,-689,-32,-25,7,2024-01-24 14:36:44,0.0
4295,-21,-695,-36,-26,12,2024-01-24 14:36:44,0.0
4274,-55,-702,-17,-29,4,2024-01-24 14:36:44,0.0
4288,0,-624,-21,-95,1,2024-01-24 14:36:44,0.0
4332,1,-717,-48,-60,5,2024-01-24 14:36:44,0.0
4292,-39,-788,-61,14,18,2024-01-24 14:36:44,0.0
4274,-70,-720,-51,39,12,2024-01-24 14:36:44,0.0
4294,17,-563,-38,-64,1,2024-01-24 14:36:44,0.0
4254,-36,-696,-58,-26,9,2024-01-24 14:36:44,0.0
4319,-106,-710,-20,-78,3,2024-01-24 14:36:44,0.0
4289,43,-679,-42,-41,8,2024-01-24 14:36:44,0.0
4263,-86,-774,-37,-68,15,2024-01-24 14:36:44,0.0
4381,-11,-769,-11,-70,0,2024-01-24 14:36:45,0.0
4194,-29,-717,-46,-49,7,2024-01-24 14:36:45,0.0
4331,-76,-723,-29,-84,5,2024-01-24 14:36:45,0.0
4285,-2,-742,-45,-57,7,2024-01-24 14:36:45,0.0
4286,-33,-777,-57,-32,11,2024-01-24 14:36:45,0.0
4265,-51,-747,-63,-35,17,2024-01-24 14:36:45,0.0
4304,-34,-717,-56,-47,13,2024-01-24 14:36:45,0.0
4261,-40,-746,-58,-52,12,2024-01-24 14:36:45,0.0
4272,-37,-813,-45,-43,18,2024-01-24 14:36:45,0.0
4279,-42,-800,-38,-36,11,2024-01-24 14:36:45,0.0
4278,-38,-817,-32,-24,8,2024-01-24 14:36:45,0.0
4277,-78,-779,-29,-23,5,2024-01-24 14:36:45,0.0
4297,-52,-803,-18,-25,10,2024-01-24 14:36:45,0.0
4264,-51,-803,-16,-24,11,2024-01-24 14:36:45,0.0
4278,-39,-785,-23,-27,8,2024-01-24 14:36:45,0.0
4311,-36,-812,-35,-12,5,2024-01-24 14:36:45,0.0
4303,-32,-808,-42,-10,9,2024-01-24 14:36:45,0.0
4276,-44,-837,-47,8,10,2024-01-24 14:36:46,0.0
4257,-39,-800,-49,-4,8,2024-01-24 14:36:46,0.0
4271,-48,-786,-42,-21,9,2024-01-24 14:36:46,0.0
4281,-36,-774,-46,-9,11,2024-01-24 14:36:46,0.0
4279,-31,-809,-45,-4,10,2024-01-24 14:36:46,0.0
4283,-31,-748,-40,2,12,2024-01-24 14:36:46,0.0
4249,-20,-736,-42,-13,11,2024-01-24 14:36:46,0.0
4257,-17,-721,-32,-45,10,2024-01-24 14:36:46,0.0
4296,-13,-741,-42,-50,7,2024-01-24 14:36:46,0.0
4294,-42,-739,-42,-30,11,2024-01-24 14:36:46,0.0
4352,-6,-751,-29,17,13,2024-01-24 14:36:46,0.0
4294,-35,-749,-48,22,8,2024-01-24 14:36:46,0.0
4266,-67,-740,-46,6,16,2024-01-24 14:36:46,0.0
4292,-31,-714,-50,-15,12,2024-01-24 14:36:46,0.0
4304,-41,-740,-37,-22,18,2024-01-24 14:36:46,0.0
4273,-46,-692,-23,-43,5,2024-01-24 14:36:46,0.0
4279,-37,-648,-21,-89,-2,2024-01-24 14:36:46,0.0
4361,-11,-728,-36,-60,8,2024-01-24 14:36:46,0.0
4308,-64,-694,-41,-9,14,2024-01-24 14:36:47,0.0
4294,-50,-682,-47,39,20,2024-01-24 14:36:47,0.0
4272,-19,-779,-53,34,19,2024-01-24 14:36:47,0.0
4255,-37,-707,-53,0,3,2024-01-24 14:36:47,0.0
4269,-57,-630,-54,-71,-2,2024-01-24 14:36:47,0.0
4321,-37,-696,-60,-72,11,2024-01-24 14:36:47,0.0
4348,-72,-742,-57,-4,20,2024-01-24 14:36:47,0.0
4320,-48,-709,-44,38,19,2024-01-24 14:36:47,0.0
4286,-29,-761,-49,29,11,2024-01-24 14:36:47,0.0
4270,-2,-670,-47,-30,1,2024-01-24 14:36:47,0.0
4268,-34,-613,-58,-133,-15,2024-01-24 14:36:47,0.0
4347,-21,-687,-68,-88,-2,2024-01-24 14:36:47,0.0
4357,-66,-688,-79,-36,19,2024-01-24 14:36:47,0.0
4352,-58,-717,-66,29,19,2024-01-24 14:36:47,0.0
4249,4,-679,-68,13,15,2024-01-24 14:36:47,0.0
4269,-75,-710,-51,-12,7,2024-01-24 14:36:47,0.0
4269,-50,-689,-47,-70,-1,2024-01-24 14:36:47,0.0
4311,-22,-625,-37,-78,6,2024-01-24 14:36:48,0.0
4333,-48,-742,-34,-19,16,2024-01-24 14:36:48,
4321,-16,-695,-32,36,22,2024-01-24 14:36:48,0.0
4240,-21,-692,-32,20,12,2024-01-24 14:36:48,0.0
4238,-32,-712,-28,-37,3,2024-01-24 14:36:48,0.0
4288,4,-631,-44,-104,6,2024-01-24 14:36:48,0.0
4307,-8,-739,-62,-57,15,2024-01-24 14:36:48,0.0
4361,-49,-766,-70,-5,29,2024-01-24 14:36:48,0.0
4269,-3,-750,-60,31,15,2024-01-24 14:36:48,0.0
4262,-28,-701,-51,-11,-2,2024-01-24 14:36:48,0.0
4273,1,-596,-57,-104,3,2024-01-24 14:36:48,0.0
4364,-44,-748,-68,-59,16,2024-01-24 14:36:48,0.0
4304,-97,-823,-47,-7,22,2024-01-24 14:36:48,0.0
4296,-38,-741,-12,9,0,2024-01-24 14:36:48,0.0
4217,29,-609,-28,-46,-1,2024-01-24 14:36:48,0.0
4296,-34,-683,-57,-82,7,2024-01-24 14:36:48,0.0
4370,-68,-801,-46,-46,20,2024-01-24 14:36:48,0.0
4304,-34,-801,-18,0,11,2024-01-24 14:36:48,0.0
4285,55,-670,-31,-18,-1,2024-01-24 14:36:49,0.0
4267,-5,-690,-37,-44,3,2024-01-24 14:36:49,0.0
4307,-46,-742,-33,-48,9,2024-01-24 14:36:49,0.0
4281,-17,-742,-37,-22,10,2024-01-24 14:36:49,0.0
4284,-5,-712,-35,-5,6,2024-01-24 14:36:49,0.0
4290,21,-758,-38,-15,7,2024-01-24 14:36:49,0.0
4272,-22,-702,-49,-11,13,2024-01-24 14:36:49,0.0
4288,-1,-714,-60,-23,17,2024-01-24 14:36:49,0.0
4295,-13,-697,-57,-19,14,2024-01-24 14:36:49,0.0
4320,8,-723,-36,-20,14,2024-01-24 14:36:49,0.0
4307,-46,-699,-30,-19,5,2024-01-24 14:36:49,0.0
4304,-36,-667,6,-16,6,2024-01-24 14:36:49,0.0
4324,-65,-649,53,-19,-5,2024-01-24 14:36:49,0.0
4298,-11,-632,94,-15,-6,2024-01-24 14:36:49,0.0
4297,-6,-669,99,-31,-1,2024-01-24 14:36:49,0.0
4303,-9,-710,85,-31,0,2024-01-24 14:36:49,0.0
4288,21,-699,67,-21,1,2024-01-24 14:36:49,0.0
4301,-5,-629,57,-17,10,2024-01-24 14:36:50,0.0
4278,13,-742,24,-23,15,2024-01-24 14:36:50,0.0
4292,-21,-690,5,-22,16,2024-01-24 14:36:50,0.0
4294,-25,-664,-11,-12,26,2024-01-24 14:36:50,0.0
4286,-63,-633,1,-30,19,2024-01-24 14:36:50,0.0
4280,-52,-683,6,-45,13,2024-01-24 14:36:50,0.0
4292,-109,-668,9,-51,15,2024-01-24 14:36:50,0.0
4309,-91,-651,9,-7,28,2024-01-24 14:36:50,0.0
4317,-127,-673,-10,16,26,2024-01-24 14:36:50,0.0
4305,-100,-658,-50,0,20,2024-01-24 14:36:50,0.0
4278,-97,-673,-111,13,24,2024-01-24 14:36:50,0.0
4299,-162,-663,-152,-38,22,2024-01-24 14:36:50,0.0
4303,-150,-647,-198,20,20,2024-01-24 14:36:50,0.0
4314,-171,-634,-184,51,7,2024-01-24 14:36:50,0.0
4314,-174,-556,-156,-7,10,2024-01-24 14:36:50,0.0
4311,-118,-638,-119,-39,3,2024-01-24 14:36:50,0.0
4290,-191,-643,-83,-39,3,2024-01-24 14:36:50,0.0
4294,-123,-649,-50,-12,-3,2024-01-24 14:36:50,0.0
4277,-99,-698,-36,-29,-7,2024-01-24 14:36:51,0.0
4276,-139,-593,-13,-73,-7,2024-01-24 14:36:51,0.0
4287,-26,-630,-25,-83,-16,2024-01-24 14:36:51,0.0
4312,-34,-684,-48,-71,-7,2024-01-24 14:36:51,0.0
4372,11,-710,-74,-22,1,2024-01-24 14:36:51,0.0
4222,-20,-723,-118,-51,-1,2024-01-24 14:36:51,0.0
4381,28,-604,-148,-129,-3,2024-01-24 14:36:51,0.0
4260,41,-679,-188,-62,-14,2024-01-24 14:36:51,0.0
4307,2,-747,-186,-92,10,2024-01-24 14:36:51,0.0
4339,45,-772,-197,-43,13,2024-01-24 14:36:51,0.0
4249,82,-652,-207,33,5,2024-01-24 14:36:51,0.0
4300,100,-751,-209,-27,-1,2024-01-24 14:36:51,0.0
4284,177,-685,-232,-58,3,2024-01-24 14:36:51,0.0
4315,121,-697,-260,-48,7,2024-01-24 14:36:51,0.0
4327,50,-672,-250,-55,1,2024-01-24 14:36:51,0.0
4308,83,-651,-223,-24,-8,2024-01-24 14:36:51,0.0
4323,144,-625,-223,-6,-6,2024-01-24 14:36:51,0.0
4320,152,-666,-230,22,-9,2024-01-24 14:36:52,0.0
4277,86,-580,-231,5,-8,2024-01-24 14:36:52,0.0
4308,61,-645,-237,-22,-14,2024-01-24 14:36:52,0.0
4305,112,-663,-200,9,1,2024-01-24 14:36:52,0.0
4302,118,-681,-195,-34,8,2024-01-24 14:36:52,0.0
4280,109,-615,-189,-16,18,2024-01-24 14:36:52,0.0
4261,97,-574,-159,-54,30,2024-01-24 14:36:52,0.0
4355,98,-714,-139,-33,34,2024-01-24 14:36:52,0.0
4288,84,-640,-89,17,15,2024-01-24 14:36:52,0.0
4289,87,-573,-53,-14,8,2024-01-24 14:36:52,0.0
4297,114,-636,-26,-5,-1,2024-01-24 14:36:52,0.0
4292,102,-595,1,-33,0,2024-01-24 14:36:52,0.0
4311,48,-609,32,-42,8,2024-01-24 14:36:52,0.0
4317,58,-623,96,-26,-2,2024-01-24 14:36:52,0.0
4272,64,-650,152,-59,7,2024-01-24 14:36:52,0.0
4283,116,-636,155,-80,6,2024-01-24 14:36:52,0.0
4285,111,-706,157,-77,32,2024-01-24 14:36:52,0.0
4270,146,-717,124,-65,57,2024-01-24 14:36:53,0.0
4311,18,-614,169,-53,55,2024-01-24 14:36:53,0.0
4305,8,-679,216,-66,19,2024-01-24 14:36:53,0.0
4276,18,-695,271,-79,1,2024-01-24 14:36:53,0.0
4282,71,-728,242,-68,-8,2024-01-24 14:36:53,0.0
4266,119,-721,169,-124,9,2024-01-24 14:36:53,0.0
4318,19,-752,133,-82,15,2024-01-24 14:36:53,0.0
4346,-9,-796,127,-49,16,2024-01-24 14:36:53,0.0
4253,35,-791,94,-44,21,2024-01-24 14:36:53,0.0
4367,90,-773,16,-20,6,2024-01-24 14:36:53,0.0
4254,45,-775,-48,-21,27,2024-01-24 14:36:53,0.0
4281,-58,-769,-50,-12,11,2024-01-24 14:36:53,0.0
4268,-14,-857,-60,-16,10,2024-01-24 14:36:53,0.0
4298,-44,-837,-64,-19,11,2024-01-24 14:36:53,0.0
4252,-12,-785,-59,-28,11,2024-01-24 14:36:53,
4275,-64,-752,-58,-41,14,2024-01-24 14:36:53,0.0
4294,-74,-812,-42,-39,11,2024-01-24 14:36:53,0.0
4265,-52,-795,-16,0,11,2024-01-24 14:36:53,0.0
4292,-46,-791,-14,34,6,2024-01-24 14:36:54,0.0
4290,32,-768,-24,39,9,2024-01-24 14:36:54,0.0
4313,6,-700,-47,33,5,2024-01-24 14:36:54,0.0
4313,-10,-695,-49,34,9,2024-01-24 14:36:54,0.0
4311,-32,-739,-49,14,8,2024-01-24 14:36:54,0.0
4259,-36,-711,-34,27,9,2024-01-24 14:36:54,0.0
4323,19,-706,-45,-4,1,2024-01-24 14:36:54,0.0
4292,12,-701,-43,7,4,2024-01-24 14:36:54,0.0
4263,7,-654,-46,-14,10,2024-01-24 14:36:54,0.0
4304,5,-674,-48,-6,3,2024-01-24 14:36:54,0.0
4298,-10,-669,-65,-22,14,2024-01-24 14:36:54,0.0
4292,-3,-661,-82,-4,11,2024-01-24 14:36:54,0.0
4276,42,-634,-101,-12,19,2024-01-24 14:36:54,0.0
4314,-20,-582,-110,-25,12,2024-01-24 14:36:54,0.0
4303,37,-651,-101,-22,19,2024-01-24 14:36:54,0.0
4333,-40,-562,-91,-13,10,2024-01-24 14:36:54,0.0
4320,24,-597,-85,-9,16,2024-01-24 14:36:54,0.0
4318,-4,-601,-88,-7,13,2024-01-24 14:36:55,0.0
4298,-22,-565,-49,14,9,2024-01-24 14:36:55,0.0
4286,-20,-588,-33,-7,6,2024-01-24 14:36:55,0.0
4354,8,-570,5,9,11,2024-01-24 14:36:55,0.0
4311,42,-606,-29,-7,4,2024-01-24 14:36:55,0.0
4311,7,-579,-51,-19,12,2024-01-24 14:36:55,0.0
4326,0,-562,-47,0,13,2024-01-24 14:36:55,0.0
4283,-9,-592,-42,-31,14,2024-01-24 14:36:55,0.0
4308,-36,-603,-27,-14,15,2024-01-24 14:36:55,0.0
4293,3,-587,-20,-41,10,2024-01-24 14:36:55,0.0
4294,-26,-552,-28,-49,11,2024-01-24 14:36:55,0.0
4349,-16,-535,3,-61,12,2024-01-24 14:36:55,0.0
4281,11,-576,18,-83,7,2024-01-24 14:36:55,0.0
4300,23,-574,24,-173,2,2024-01-24 14:36:55,0.0
4342,23,-627,27,-70,3,2024-01-24 14:36:55,0.0
4285,39,-618,27,-46,8,2024-01-24 14:36:55,0.0
4297,-20,-614,40,-55,-2,2024-01-24 14:36:55,0.0
4331,-20,-613,47,-42,0,2024-01-24 14:36:55,0.0
4331,13,-551,38,-10,11,2024-01-24 14:36:56,0.0
4302,-17,-641,26,-16,11,2024-01-24 14:36:56,0.0
4333,-24,-624,-4,15,17,2024-01-24 14:36:56,0.0
4263,-28,-610,-31,-9,17,2024-01-24 14:36:56,0.0
4352,2,-597,-79,-16,13,2024-01-24 14:36:56,0.0
4268,-66,-603,-100,-46,17,2024-01-24 14:36:56,0.0
4308,-54,-678,-99,-60,12,2024-01-24 14:36:56,0.0
4294,-61,-646,-94,-58,18,2024-01-24 14:36:56,0.0
4301,-69,-659,-109,-85,15,2024-01-24 14:36:56,0.0
4272,-53,-714,-100,-91,8,2024-01-24 14:36:56,0.0
4309,-78,-741,-81,-80,7,2024-01-24 14:36:56,0.0
4290,-34,-732,-60,-71,14,2024-01-24 14:36:56,0.0
4312,-44,-725,-64,-65,7,2024-01-24 14:36:56,0.0
4305,-16,-741,-64,-51,5,2024-01-24 14:36:56,0.0
4283,-7,-723,-69,-61,-1,2024-01-24 14:36:56,0.0
4279,-5,-725,-85,-47,-3,2024-01-24 14:36:56,0.0
4301,36,-710,-73,-55,3,2024-01-24 14:36:56,0.0
4299,11,-768,-67,-48,0,2024-01-24 14:36:57,0.0
4277,30,-761,-60,-43,2,2024-01-24 14:36:57,0.0
4325,32,-756,-57,-42,-2,2024-01-24 14:36:57,0.0
4252,48,-724,-60,-36,1,2024-01-24 14:36:57,0.0
4300,17,-752,-60,-32,4,2024-01-24 14:36:57,0.0
4301,14,-812,-50,-7,5,2024-01-24 14:36:57,0.0
4284,63,-758,-52,-12,9,2024-01-24 14:36:57,0.0
4263,37,-733,-43,-24,8,2024-01-24 14:36:57,0.0
4314,26,-750,-31,-20,10,2024-01-24 14:36:57,0.0
4236,37,-751,-27,-34,10,2024-01-24 14:36:57,0.0
4278,57,-811,-16,-33,16,2024-01-24 14:36:57,0.0
4326,28,-734,-38,-19,5,2024-01-24 14:36:57,0.0
4278,32,-732,-42,-14,16,2024-01-24 14:36:57,0.0
4301,-18,-731,-54,-8,8,2024-01-24 14:36:57,0.0
4319,8,-749,-33,20,12,2024-01-24 14:36:57,0.0
4316,34,-677,-51,12,20,2024-01-24 14:36:57,0.0
4281,-21,-723,-75,10,1,2024-01-24 14:36:57,0.0
4303,51,-648,-93,-6,27,2024-01-24 14:36:57,0.0
4291,-20,-673,-98,6,17,2024-01-24 14:36:58,0.0
4288,41,-658,-99,-2,20,2024-01-24 14:36:58,0.0
4312,-59,-663,-80,13,15,2024-01-24 14:36:58,0.0
4303,-11,-647,-38,36,12,2024-01-24 14:36:58,0.0
4325,-47,-634,-23,14,9,2024-01-24 14:36:58,0.0
4322,31,-647,-37,7,13,2024-01-24 14:36:58,0.0
4342,-15,-633,-52,0,14,2024-01-24 14:36:58,0.0
4316,-30,-605,-23,-10,17,2024-01-24 14:36:58,0.0
4323,-23,-634,0,-13,10,2024-01-24 14:36:58,0.0
4311,-11,-590,11,-26,13,2024-01-24 14:36:58,0.0
4306,19,-596,15,18,13,2024-01-24 14:36:58,0.0
4277,29,-585,5,9,3,2024-01-24 14:36:58,0.0
4294,6,-522,-17,-63,5,2024-01-24 14:36:58,0.0
4345,39,-589,-22,-53,12,2024-01-24 14:36:58,0.0
4318,-17,-661,-45,14,11,2024-01-24 14:36:58,0.0
4272,30,-540,-67,-15,2,2024-01-24 14:36:58,0.0
4297,-20,-638,-76,-19,19,2024-01-24 14:36:58,0.0
4298,-11,-601,-77,-22,4,2024-01-24 14:36:59,0.0
4328,-5,-600,-58,-36,14,2024-01-24 14:36:59,0.0
4312,-5,-584,-61,-4,9,2024-01-24 14:36:59,0.0
4314,10,-613,-39,-47,2,2024-01-24 14:36:59,0.0
4308,44,-573,-34,-11,14,2024-01-24 14:36:59,0.0
4307,-34,-549,-36,-49,0,2024-01-24 14:36:59,0.0
4321,19,-599,-29,-35,14,2024-01-24 14:36:59,0.0
4315,-26,-596,-37,-38,12,2024-01-24 14:36:59,0.0
4297,14,-547,-50,-60,19,2024-01-24 14:36:59,0.0
4281,29,-645,-58,-81,22,2024-01-24 14:36:59,
4306,110,-550,-50,-135,18,2024-01-24 14:36:59,0.0
4328,30,-620,-33,-107,19,2024-01-24 14:36:59,0.0
4320,19,-664,8,-73,11,2024-01-24 14:36:59,0.0
4315,8,-640,32,-63,16,2024-01-24 14:36:59,0.0
4305,-1,-707,44,-73,25,2024-01-24 14:36:59,0.0
4293,-26,-733,45,-55,19,2024-01-24 14:36:59,0.0
4305,-84,-697,60,-30,13,2024-01-24 14:36:59,0.0
4282,-63,-696,59,-37,11,2024-01-24 14:36:59,0.0
4308,-50,-704,42,-32,25,2024-01-24 14:37:00,0.0
4326,-82,-698,16,-40,20,2024-01-24 14:37:00,0.0
4269,-106,-753,8,-30,19,2024-01-24 14:37:00,0.0
4295,-120,-715,-15,-51,15,2024-01-24 14:37:00,0.0
4286,-130,-734,-19,-52,15,2024-01-24 14:37:00,0.0
4302,-114,-706,-22,-38,14,2024-01-24 14:37:00,0.0
4274,-160,-741,-30,-45,11,2024-01-24 14:37:00,0.0
4321,-98,-771,-44,-45,13,2024-01-24 14:37:00,0.0
4267,-99,-715,-49,-60,4,2024-01-24 14:37:00,0.0
4276,-109,-740,-51,-49,6,2024-01-24 14:37:00,0.0
4287,-106,-739,-37,-40,2,2024-01-24 14:37:00,0.0
4301,-60,-757,-61,-32,10,2024-01-24 14:37:00,0.0
4274,-77,-734,-80,-25,14,2024-01-24 14:37:00,0.0
4298,-109,-750,-68,-31,17,2024-01-24 14:37:00,0.0
4305,-68,-740,-44,-16,-7,2024-01-24 14:37:00,0.0
4295,-111,-721,-20,-13,-12,2024-01-24 14:37:00,0.0
4299,-81,-722,18,7,-16,2024-01-24 14:37:00,0.0
4253,-78,-730,26,22,-16,2024-01-24 14:37:01,0.0
4271,1,-704,26,18,-24,2024-01-24 14:37:01,0.0
4309,-88,-713,18,7,-14,2024-01-24 14:37:01,0.0
4292,-23,-682,7,31,-4,2024-01-24 14:37:01,0.0
4335,-36,-647,-9,16,16,2024-01-24 14:37:01,0.0
4278,43,-658,-55,13,-4,2024-01-24 14:37:01,0.0
4324,82,-665,-113,47,-8,2024-01-24 14:37:01,0.0
4289,150,-636,-169,-4,-3,2024-01-24 14:37:01,0.0
4315,106,-573,-199,-19,8,2024-01-24 14:37:01,0.0
4334,126,-637,-196,-13,-6,2024-01-24 14:37:01,0.0
4293,86,-606,-195,17,1,2024-01-24 14:37:01,0.0
4297,111,-565,-195,-23,-3,2024-01-24 14:37:01,0.0
4315,81,-629,-172,14,0,2024-01-24 14:37:01,0.0
4317,104,-603,-132,-25,-9,2024-01-24 14:37:01,0.0
4269,81,-592,-88,-35,5,2024-01-24 14:37:01,0.0
4334,69,-588,-39,-1,10,2024-01-24 14:37:01,0.0
4258,108,-523,-40,-37,7,2024-01-24 14:37:01,0.0
4343,103,-566,-18,-57,18,2024-01-24 14:37:01,0.0
4320,82,-610,-10,-35,24,2024-01-24 14:37:02,0.0
4303,86,-608,-1,-75,32,2024-01-24 14:37:02,0.0
4335,48,-602,3,-76,31,2024-01-24 14:37:02,0.0
4289,71,-614,-16,-93,35,2024-01-24 14:37:02,0.0
4324,13,-616,9,-107,43,2024-01-24 14:37:02,0.0
4357,-24,-618,18,-54,44,2024-01-24 14:37:02,0.0
4274,-70,-638,31,-81,39,2024-01-24 14:37:02,0.0
4329,-87,-674,55,-76,59,2024-01-24 14:37:02,0.0
4308,-139,-747,69,-23,42,2024-01-24 14:37:02,0.0
4290,-117,-669,85,-2,42,2024-01-24 14:37:02,0.0
4293,-178,-655,98,-20,35,2024-01-24 14:37:02,0.0
4292,-181,-719,107,-24,37,2024-01-24 14:37:02,0.0
4304,-176,-705,103,-25,38,2024-01-24 14:37:02,0.0
4295,-142,-678,82,-28,21,2024-01-24 14:37:02,0.0
4289,-123,-726,60,-5,27,2024-01-24 14:37:02,0.0
4307,-189,-700,19,-29,20,2024-01-24 14:37:02,0.0
4283,-158,-676,7,8,7,2024-01-24 14:37:02,0.0
4342,-160,-682,-13,-29,1,2024-01-24 14:37:03,0.0
4338,-127,-684,-46,20,-1,2024-01-24 14:37:03,0.0
4256,-158,-629,-59,-11,-7,2024-01-24 14:37:03,0.0
4334,-106,-685,-82,15,-10,2024-01-24 14:37:03,0.0
4320,-142,-634,-94,-25,-3,2024-01-24 14:37:03,0.0
4302,-176,-685,-103,4,-8,2024-01-24 14:37:03,0.0
4303,-138,-722,-84,-19,-14,2024-01-24 14:37:03,0.0
4336,-156,-621,-79,-2,-7,2024-01-24 14:37:03,0.0
4336,-112,-619,-77,-12,-8,2024-01-24 14:37:03,0.0
4294,-126,-632,-54,-18,-13,2024-01-24 14:37:03,0.0
4291,-89,-630,-39,-28,-9,2024-01-24 14:37:03,0.0
4322,-121,-596,-31,-16,-2,2024-01-24 14:37:03,0.0
4282,-97,-640,-4,-24,3,2024-01-24 14:37:03,0.0
4306,-71,-614,6,-38,-3,2024-01-24 14:37:03,0.0
4283,-44,-605,-10,-79,-3,2024-01-24 14:37:03,0.0
4310,-20,-604,-27,-88,-5,2024-01-24 14:37:03,0.0
4287,29,-576,-50,-107,6,2024-01-24 14:37:03,0.0
4323,57,-674,-99,-95,-12,2024-01-24 14:37:04,0.0
4298,24,-707,-109,-81,3,2024-01-24 14:37:04,0.0
4306,90,-692,-135,-75,5,2024-01-24 14:37:04,0.0
4281,70,-689,-135,-62,-4,2024-01-24 14:37:04,0.0
4281,146,-696,-142,-82,-7,2024-01-24 14:37:04,0.0
4352,76,-769,-142,-64,1,2024-01-24 14:37:04,0.0
4252,80,-704,-118,-52,9,2024-01-24 14:37:04,0.0
4331,108,-707,-113,-45,7,2024-01-24 14:37:04,0.0
4261,47,-711,-94,-14,20,2024-01-24 14:37:04,0.0
4326,46,-794,-61,35,20,2024-01-24 14:37:04,0.0
4300,73,-673,-49,16,23,2024-01-24 14:37:04,0.0
4256,9,-704,-32,-7,26,2024-01-24 14:37:04,0.0
4311,-21,-672,-10,-21,32,2024-01-24 14:37:04,0.0
4274,-6,-733,7,-37,31,2024-01-24 14:37:04,0.0
4283,-46,-681,29,-37,35,2024-01-24 14:37:04,0.0
4302,-65,-709,41,-21,33,2024-01-24 14:37:04,0.0
4273,-78,-714,58,-36,36,2024-01-24 14:37:04,0.0
4323,-128,-699,66,-37,29,2024-01-24 14:37:04,0.0
4282,-151,-751,73,-27,32,2024-01-24 14:37:05,0.0
4318,-201,-748,67,-14,28,2024-01-24 14:37:05,0.0
4282,-158,-725,53,40,30,2024-01-24 14:37:05,0.0
4314,-179,-650,18,12,29,2024-01-24 14:37:05,0.0
4287,-221,-627,-13,55,16,2024-01-24 14:37:05,
4300,-204,-636,-36,-2,18,2024-01-24 14:37:05,0.0
4343,-177,-662,-54,-29,21,2024-01-24 14:37:05,0.0
4293,-192,-645,-71,-16,13,2024-01-24 14:37:05,0.0
4295,-133,-693,-87,-33,2,2024-01-24 14:37:05,0.0
4306,-125,-690,-93,-32,-6,2024-01-24 14:37:05,0.0
4287,-90,-678,-112,-57,-2,2024-01-24 14:37:05,0.0
4294,-120,-688,-102,-62,-3,2024-01-24 14:37:05,0.0
4301,-96,-668,-88,-37,1,2024-01-24 14:37:05,0.0
4255,-84,-709,-69,-72,-17,2024-01-24 14:37:05,0.0
4300,-102,-723,-65,-53,-17,2024-01-24 14:37:05,0.0
4312,-104,-696,-54,-20,-18,2024-01-24 14:37:05,0.0
4289,-63,-682,-41,-30,-23,2024-01-24 14:37:05,0.0
4292,-110,-684,-20,-13,-12,2024-01-24 14:37:06,0.0
4267,-44,-663,-7,-9,-9,2024-01-24 14:37:06,0.0
4309,-75,-660,16,-24,-6,2024-01-24 14:37:06,0.0
4257,-38,-662,28,-22,-5,2024-01-24 14:37:06,0.0
4322,-35,-717,19,-31,1,2024-01-24 14:37:06,0.0
4308,1,-701,0,-28,7,2024-01-24 14:37:06,0.0
4276,-26,-687,-12,-41,3,2024-01-24 14:37:06,0.0
4266,21,-671,-28,-25,10,2024-01-24 14:37:06,0.0
4300,-46,-704,-34,-30,17,2024-01-24 14:37:06,0.0
4295,35,-663,-57,-33,16,2024-01-24 14:37:06,0.0
4336,-16,-723,-76,-26,6,2024-01-24 14:37:06,0.0
4274,25,-638,-66,-71,7,2024-01-24 14:37:06,0.0
4311,-15,-698,-36,-38,-6,2024-01-24 14:37:06,0.0
4277,20,-679,-41,-50,-2,2024-01-24 14:37:06,0.0
4325,66,-700,-38,-22,14,2024-01-24 14:37:06,0.0
4285,-3,-702,-24,17,13,2024-01-24 14:37:06,0.0
4294,27,-690,2,-6,18,2024-01-24 14:37:06,0.0
4294,-60,-658,45,-18,21,2024-01-24 14:37:06,0.0
4323,-41,-694,65,-5,22,2024-01-24 14:37:07,0.0
4312,-51,-676,79,-22,32,2024-01-24 14:37:07,0.0
4324,-92,-668,77,18,33,2024-01-24 14:37:07,0.0
4317,-56,-638,43,44,26,2024-01-24 14:37:07,0.0
4327,-66,-641,25,44,18,2024-01-24 14:37:07,0.0
4272,-185,-597,49,16,9,2024-01-24 14:37:07,0.0
4278,-71,-716,70,13,4,2024-01-24 14:37:07,0.0
4294,-146,-608,63,-53,12,2024-01-24 14:37:07,0.0
4274,-139,-589,69,-57,20,2024-01-24 14:37:07,0.0
4331,-46,-604,10,-59,4,2024-01-24 14:37:07,0.0
4377,-137,-619,-31,24,14,2024-01-24 14:37:07,0.0
4276,-223,-635,-40,-34,12,2024-01-24 14:37:07,0.0
4350,-268,-583,14,46,1,2024-01-24 14:37:07,0.0
4297,-276,-573,75,8,-7,2024-01-24 14:37:07,0.0
4328,-296,-573,142,-15,-10,2024-01-24 14:37:07,0.0
4324,-251,-582,143,-14,1,2024-01-24 14:37:07,0.0
4314,-251,-577,135,-22,18,2024-01-24 14:37:07,0.0
4297,-242,-576,136,-26,13,2024-01-24 14:37:08,0.0
4307,-286,-547,143,-24,4,2024-01-24 14:37:08,0.0
4276,-239,-500,141,-41,0,2024-01-24 14:37:08,0.0
4339,-221,-572,137,-68,12,2024-01-24 14:37:08,0.0
4246,-139,-541,79,-76,-1,2024-01-24 14:37:08,0.0
4358,-150,-597,86,-54,-3,2024-01-24 14:37:08,0.0
4292,-57,-532,19,-13,-32,2024-01-24 14:37:08,0.0
4321,-39,-564,20,-35,-24,2024-01-24 14:37:08,0.0
4319,22,-568,5,-41,-52,2024-01-24 14:37:08,0.0
4365,61,-638,-12,-55,-53,2024-01-24 14:37:08,0.0
4274,98,-624,-53,-15,-45,2024-01-24 14:37:08,0.0
4257,78,-686,-56,-64,-42,2024-01-24 14:37:08,0.0
4338,133,-712,-83,-58,-27,2024-01-24 14:37:08,0.0
4300,165,-676,-127,-49,-26,2024-01-24 14:37:08,0.0
4337,195,-642,-200,-51,-18,2024-01-24 14:37:08,0.0
4274,108,-573,-208,-77,8,2024-01-24 14:37:08,0.0
4344,151,-677,-247,-57,4,2024-01-24 14:37:08,0.0
4331,16,-616,-210,-28,25,2024-01-24 14:37:08,0.0
4292,76,-644,-209,-1,38,2024-01-24 14:37:09,0.0
4352,147,-601,-233,41,33,2024-01-24 14:37:09,0.0
4270,68,-626,-242,18,51,2024-01-24 14:37:09,0.0
4323,51,-584,-206,3,47,2024-01-24 14:37:09,0.0
4322,-35,-555,-175,-3,50,2024-01-24 14:37:09,0.0
4324,-19,-567,-122,24,42,2024-01-24 14:37:09,0.0
4342,-110,-607,-70,51,61,2024-01-24 14:37:09,0.0
4248,-180,-541,-14,25,43,2024-01-24 14:37:09,0.0
4343,-124,-575,105,49,45,2024-01-24 14:37:09,0.0
4279,-242,-418,151,66,39,2024-01-24 14:37:09,0.0
4322,-308,-522,228,0,38,2024-01-24 14:37:09,0.0
4354,-317,-452,309,30,12,2024-01-24 14:37:09,0.0
4308,-259,-491,328,-105,16,2024-01-24 14:37:09,0.0
4394,-293,-577,382,12,-12,2024-01-24 14:37:09,0.0
4346,-89,-391,307,45,16,2024-01-24 14:37:09,0.0
4329,53,-382,56,46,-6,2024-01-24 14:37:09,0.0
4379,75,-394,-283,54,26,2024-01-24 14:37:09,0.0
4241,-166,-261,-489,31,-14,2024-01-24 14:37:10,0.0
4373,-374,-482,-384,42,-9,2024-01-24 14:37:10,0.0
4353,-675,-444,-122,163,-71,2024-01-24 14:37:10,0.0
4203,-54,-275,95,33,22,2024-01-24 14:37:10,0.0
4353,264,-184,-116,-77,13,2024-01-24 14:37:10,0.0
4221,110,-276,-353,-159,-27,2024-01-24 14:37:10,0.0
4340,-279,-229,-189,-174,-28,2024-01-24 14:37:10,0.0
4368,-142,-463,-36,-123,-40,2024-01-24 14:37:10,0.0
4311,100,-519,-66,-39,-7,2024-01-24 14:37:10,0.0
4233,54,-500,-169,-67,6,2024-01-24 14:37:10,0.0
4336,-31,-423,-192,-58,2,2024-01-24 14:37:10,0.0
4360,2,-585,-170,-74,11,2024-01-24 14:37:10,0.0
4421,-193,-744,-137,41,-6,2024-01-24 14:37:10,0.0
4331,-36,-737,-116,188,-18,2024-01-24 14:37:10,0.0
4291,120,-247,-158,72,16,2024-01-24 14:37:10,0.0
4249,6,-223,-179,-49,50,2024-01-24 14:37:10,0.0
4223,2,-40,-54,-147,41,2024-01-24 14:37:10,0.0
4418,55,-374,-21,-156,1,2024-01-24 14:37:10,
4333,-49,-417,-49,-107,12,2024-01-24 14:37:11,0.0
4420,-101,-459,-13,-52,9,2024-01-24 14:37:11,0.0
4320,-51,-530,-25,24,1,2024-01-24 14:37:11,0.0
4297,5,-538,-64,22,1,2024-01-24 14:37:11,0.0
4265,-14,-467,-108,12,12,2024-01-24 14:37:11,0.0
4288,25,-253,-107,-75,26,2024-01-24 14:37:11,0.0
4290,-53,-325,-20,-89,17,2024-01-24 14:37:11,0.0
4370,-20,-406,39,-109,-2,2024-01-24 14:37:11,0.0
4326,-2,-420,28,-75,-9,2024-01-24 14:37:11,0.0
4337,-66,-488,18,-39,17,2024-01-24 14:37:11,0.0
4420,-6,-447,-37,12,22,2024-01-24 14:37:11,0.0
4222,-94,-497,-36,5,29,2024-01-24 14:37:11,0.0
4347,-14,-529,-26,-67,32,2024-01-24 14:37:11,0.0
4352,40,-660,-76,-15,-4,2024-01-24 14:37:11,0.0
4324,-108,-554,-131,-49,-4,2024-01-24 14:37:11,0.0
4334,-112,-489,-68,12,8,2024-01-24 14:37:11,0.0
4259,-100,-408,-3,-9,1,2024-01-24 14:37:11,0.0
4284,60,-369,34,-90,30,2024-01-24 14:37:12,0.0
4352,-107,-524,20,-103,-14,2024-01-24 14:37:12,0.0
4412,55,-452,13,-37,6,2024-01-24 14:37:12,0.0
4331,-32,-541,-19,77,12,2024-01-24 14:37:12,0.0
4254,-23,-447,-25,-40,-1,2024-01-24 14:37:12,0.0
4356,-11,-542,-123,-17,5,2024-01-24 14:37:12,0.0
4335,-70,-513,-101,-60,31,2024-01-24 14:37:12,0.0
4300,-109,-387,-91,-19,13,2024-01-24 14:37:12,0.0
4281,44,-428,-49,-41,24,2024-01-24 14:37:12,0.0
4340,-35,-344,-108,-86,1,2024-01-24 14:37:12,0.0
4386,-82,-563,-67,32,3,2024-01-24 14:37:12,0.0
4286,-43,-574,-62,21,2,2024-01-24 14:37:12,0.0
4298,-102,-604,-28,63,19,2024-01-24 14:37:12,0.0
4233,11,-279,-23,-110,12,2024-01-24 14:37:12,0.0
4317,-44,-537,-53,-135,32,2024-01-24 14:37:12,0.0
4445,35,-497,-73,-80,32,2024-01-24 14:37:12,0.0
4365,-33,-539,-81,8,-5,2024-01-24 14:37:12,0.0
4311,-95,-541,-34,31,-5,2024-01-24 14:37:13,0.0
4305,-61,-494,6,19,0,2024-01-24 14:37:13,0.0
4264,15,-372,-19,-63,14,2024-01-24 14:37:13,0.0
4277,39,-399,-100,-78,-7,2024-01-24 14:37:13,0.0
4372,-130,-567,-93,-74,-11,2024-01-24 14:37:13,0.0
4302,-76,-446,-45,-46,15,2024-01-24 14:37:13,0.0
4305,100,-357,-76,-32,25,2024-01-24 14:37:13,0.0
4388,-36,-556,-129,33,38,2024-01-24 14:37:13,0.0
4255,-113,-612,-69,-19,23,2024-01-24 14:37:13,0.0
4333,-30,-500,-37,-38,12,2024-01-24 14:37:13,0.0
4253,16,-514,-9,-68,26,2024-01-24 14:37:13,0.0
4462,-12,-564,-62,-2,0,2024-01-24 14:37:13,0.0
4267,-43,-544,-42,-30,2,2024-01-24 14:37:13,0.0
4309,-104,-516,-10,-12,3,2024-01-24 14:37:13,0.0
4305,85,-542,8,-20,29,2024-01-24 14:37:13,0.0
4359,-29,-539,-155,58,1,2024-01-24 14:37:13,0.0
4381,-293,-567,-31,-60,-15,2024-01-24 14:37:13,0.0
4338,-41,-478,130,76,34,2024-01-24 14:37:13,0.0
4262,84,-274,58,83,5,2024-01-24 14:37:14,0.0
4274,106,-394,-36,10,27,2024-01-24 14:37:14,0.0
4318,-17,-502,-72,101,11,2024-01-24 14:37:14,0.0
4311,-76,-393,-93,58,11,2024-01-24 14:37:14,0.0
4298,-87,-390,-54,-31,23,2024-01-24 14:37:14,0.0
4385,-74,-422,-44,11,31,2024-01-24 14:37:14,0.0
4276,-49,-289,-84,-40,12,2024-01-24 14:37:14,0.0
4443,-98,-397,-35,-92,17,2024-01-24 14:37:14,0.0
4337,-78,-322,-48,-65,6,2024-01-24 14:37:14,0.0
4271,-19,-395,-80,45,31,2024-01-24 14:37:14,0.0
4327,-115,-503,-71,19,7,2024-01-24 14:37:14,0.0
4409,-120,-727,26,209,20,2024-01-24 14:37:14,0.0
4284,-52,-420,73,-5,1,2024-01-24 14:37:14,0.0
4238,-157,13,130,-105,9,2024-01-24 14:37:14,0.0
4553,322,-413,-234,-366,6,2024-01-24 14:37:14,0.0
4553,-552,-636,-136,262,49,2024-01-24 14:37:14,0.0
4215,75,-62,-24,133,-18,2024-01-24 14:37:14,0.0
4209,-121,-359,-66,102,26,2024-01-24 14:37:15,0.0
4319,-20,8,-34,0,6,2024-01-24 14:37:15,0.0
4334,-165,-282,-23,33,8,2024-01-24 14:37:15,0.0
4386,8,-111,-4,-65,-11,2024-01-24 14:37:15,0.0
4250,4,-117,-8,-152,8,2024-01-24 14:37:15,0.0
4263,-26,-173,-51,-268,-4,2024-01-24 14:37:15,0.0
4450,-20,-477,-69,-204,8,2024-01-24 14:37:15,0.0
4264,-82,-364,-73,-156,5,2024-01-24 14:37:15,0.0
4370,-114,-293,-18,-360,-6,2024-01-24 14:37:15,0.0
4260,-87,-639,-6,-98,17,2024-01-24 14:37:15,0.0
4318,0,-571,16,105,16,2024-01-24 14:37:15,0.0
4490,-41,-492,-19,271,8,2024-01-24 14:37:15,0.0
4040,-9,-179,-20,240,19,2024-01-24 14:37:15,0.0
4303,-3,-252,-61,8,13,2024-01-24 14:37:15,0.0
4344,-2,-261,-106,-14,3,2024-01-24 14:37:15,0.0
4382,-124,-282,-101,-72,9,2024-01-24 14:37:15,0.0
4279,-73,-273,-88,-128,7,2024-01-24 14:37:15,0.0
4297,-67,-330,-85,-199,2,2024-01-24 14:37:15,0.0
4434,-37,-321,-50,-145,-1,2024-01-24 14:37:16,0.0
4332,-99,-372,-32,-113,19,2024-01-24 14:37:16,0.0
4331,-87,-364,12,-182,0,2024-01-24 14:37:16,0.0
4328,-120,-441,43,-1,20,2024-01-24 14:37:16,0.0
4289,-41,-422,78,-70,14,2024-01-24 14:37:16,0.0
4328,3,-450,63,-91,8,2024-01-24 14:37:16,0.0
4359,74,-470,1,-41,-8,2024-01-24 14:37:16,0.0
4312,-62,-443,-37,-36,8,2024-01-24 14:37:16,0.0
4338,-30,-478,-43,-58,2,2024-01-24 14:37:16,0.0
4361,-34,-478,-59,22,-11,2024-01-24 14:37:16,0.0
4326,42,-522,-127,16,-16,2024-01-24 14:37:16,0.0
4325,65,-342,-207,76,13,2024-01-24 14:37:16,0.0
4330,94,-431,-333,20,7,2024-01-24 14:37:16,
