acceleration_x,acceleration_y,acceleration_z,gyroscope_x,gyroscope_y,gyroscope_z,timestamp,label
4298,-243,777,4,-48,21,2024-01-24 14:37:50,0.0
4256,-272,774,-7,-21,25,2024-01-24 14:37:50,0.0
4274,-299,783,-6,-64,28,2024-01-24 14:37:50,0.0
4263,-307,741,-12,-52,14,2024-01-24 14:37:50,0.0
4312,-264,743,-22,-44,19,2024-01-24 14:37:50,0.0
4231,-297,758,-65,-65,-2,2024-01-24 14:37:50,0.0
4280,-334,678,-56,-40,1,2024-01-24 14:37:51,0.0
4291,-317,679,-30,-52,12,2024-01-24 14:37:51,0.0
4270,-341,661,6,-66,19,2024-01-24 14:37:51,0.0
4280,-329,703,27,-100,28,2024-01-24 14:37:51,0.0
4309,-308,694,20,-139,25,2024-01-24 14:37:51,0.0
4294,-291,732,9,-89,27,2024-01-24 14:37:51,0.0
4197,-348,693,-2,-114,14,2024-01-24 14:37:51,0.0
4342,-372,647,33,-204,11,2024-01-24 14:37:51,0.0
4369,-351,493,64,-97,12,2024-01-24 14:37:51,0.0
4265,-351,597,97,-42,38,2024-01-24 14:37:51,0.0
4294,-346,671,117,-53,58,2024-01-24 14:37:51,0.0
4281,-315,608,119,-53,55,2024-01-24 14:37:51,0.0
4336,-331,595,116,-57,49,2024-01-24 14:37:51,0.0
4266,-272,581,109,-87,39,2024-01-24 14:37:51,0.0
4187,-357,530,76,-115,80,2024-01-24 14:37:51,0.0
4286,-380,523,70,-160,104,2024-01-24 14:37:51,0.0
4325,-471,444,85,-131,115,2024-01-24 14:37:51,0.0
4370,-380,530,197,-75,162,2024-01-24 14:37:52,0.0
4522,-279,566,196,9,59,2024-01-24 14:37:52,0.0
4345,-372,498,176,6,-12,2024-01-24 14:37:52,0.0
4106,-536,544,247,-56,6,2024-01-24 14:37:52,0.0
4263,-313,495,295,-106,95,2024-01-24 14:37:52,0.0
4416,-168,444,170,-11,75,2024-01-24 14:37:52,0.0
4410,-379,498,86,21,22,2024-01-24 14:37:52,0.0
4271,-397,535,93,0,-22,2024-01-24 14:37:52,0.0
4235,-280,449,63,-94,-12,2024-01-24 14:37:52,0.0
4389,-289,431,23,-35,11,2024-01-24 14:37:52,0.0
4315,-367,431,-28,46,-2,2024-01-24 14:37:52,0.0
4355,-319,502,-87,64,-25,2024-01-24 14:37:52,0.0
4240,-486,572,-59,63,-22,2024-01-24 14:37:52,0.0
4281,-403,637,-35,10,-1,2024-01-24 14:37:52,0.0
4246,-303,592,-80,-18,-9,2024-01-24 14:37:52,0.0
4344,-339,545,-117,-2,10,2024-01-24 14:37:52,0.0
4245,-444,554,-134,46,1,2024-01-24 14:37:52,0.0
4335,-402,584,-105,27,-2,2024-01-24 14:37:52,0.0
4280,-396,584,-87,17,-16,2024-01-24 14:37:53,0.0
4302,-361,578,-74,-12,-3,2024-01-24 14:37:53,0.0
4250,-326,693,-75,-15,19,2024-01-24 14:37:53,0.0
4303,-304,649,-65,-19,30,2024-01-24 14:37:53,0.0
4360,-312,690,-93,-39,-1,2024-01-24 14:37:53,0.0
4298,-367,611,-91,28,-6,2024-01-24 14:37:53,0.0
4239,-362,749,-62,-18,3,2024-01-24 14:37:53,0.0
4272,-349,654,-53,-20,13,2024-01-24 14:37:53,0.0
4306,-363,644,-63,-11,9,2024-01-24 14:37:53,0.0
4290,-331,659,-82,-5,10,2024-01-24 14:37:53,0.0
4284,-359,656,-88,-51,3,2024-01-24 14:37:53,0.0
4296,-366,626,-107,-41,-1,2024-01-24 14:37:53,0.0
4268,-297,694,-129,-37,-1,2024-01-24 14:37:53,0.0
4267,-342,665,-162,-39,0,2024-01-24 14:37:53,0.0
4277,-468,627,-141,-36,12,2024-01-24 14:37:53,0.0
4303,-400,662,-109,-9,7,2024-01-24 14:37:53,0.0
4270,-341,677,-102,-15,5,2024-01-24 14:37:53,0.0
4310,-330,681,-124,-13,11,2024-01-24 14:37:54,0.0
4264,-318,747,-173,-10,-6,2024-01-24 14:37:54,0.0
4251,-451,656,-183,-3,-13,2024-01-24 14:37:54,0.0
4296,-459,645,-143,3,-6,2024-01-24 14:37:54,0.0
4270,-430,657,-106,2,0,2024-01-24 14:37:54,0.0
4277,-393,699,-85,-6,0,2024-01-24 14:37:54,0.0
4292,-427,662,-70,-21,9,2024-01-24 14:37:54,0.0
4288,-427,700,-45,-25,9,2024-01-24 14:37:54,0.0
4298,-399,663,-28,-19,12,2024-01-24 14:37:54,0.0
4256,-406,706,-36,-10,8,2024-01-24 14:37:54,0.0
4266,-402,717,-38,-33,0,2024-01-24 14:37:54,0.0
4286,-436,682,-40,-43,6,2024-01-24 14:37:54,0.0
4322,-405,661,-32,-15,2,2024-01-24 14:37:54,0.0
4294,-458,675,-21,-18,12,2024-01-24 14:37:54,0.0
4265,-414,715,-17,-20,13,2024-01-24 14:37:54,0.0
4274,-399,667,-17,-41,21,2024-01-24 14:37:54,0.0
4309,-401,671,-16,-16,21,2024-01-24 14:37:54,0.0
4276,-367,698,-24,-8,21,2024-01-24 14:37:54,0.0
4293,-396,700,-36,-13,14,2024-01-24 14:37:55,0.0
4249,-405,735,-18,-39,17,2024-01-24 14:37:55,0.0
4300,-405,685,-7,-29,14,2024-01-24 14:37:55,0.0
4273,-327,697,-4,-44,16,2024-01-24 14:37:55,0.0
4291,-378,676,-13,-3,21,2024-01-24 14:37:55,0.0
4311,-428,732,3,-21,21,2024-01-24 14:37:55,0.0
4277,-361,703,11,-19,18,2024-01-24 14:37:55,0.0
4315,-358,722,-14,-25,14,2024-01-24 14:37:55,0.0
4277,-398,705,-29,-21,15,2024-01-24 14:37:55,0.0
4280,-375,748,-42,-19,10,2024-01-24 14:37:55,0.0
4278,-347,734,-56,-20,8,2024-01-24 14:37:55,0.0
4299,-369,762,-82,-19,-6,2024-01-24 14:37:55,0.0
4243,-407,736,-82,-49,-2,2024-01-24 14:37:55,0.0
4302,-393,686,-66,-51,-2,2024-01-24 14:37:55,0.0
4294,-400,688,-54,-42,-2,2024-01-24 14:37:55,0.0
4276,-347,684,-55,-36,-3,2024-01-24 14:37:55,0.0
4283,-410,689,-51,-38,9,2024-01-24 14:37:55,0.0
4275,-386,727,-38,-53,3,2024-01-24 14:37:56,0.0
4318,-378,668,-48,-40,6,2024-01-24 14:37:56,0.0
4305,-373,648,-54,31,-5,2024-01-24 14:37:56,0.0
4290,-364,713,-71,35,-3,2024-01-24 14:37:56,0.0
4261,-432,798,-54,-17,1,2024-01-24 14:37:56,0.0
4296,-334,769,-41,-79,7,2024-01-24 14:37:56,0.0
4325,-407,680,-32,-68,-3,2024-01-24 14:37:56,
4241,-349,696,-17,-45,-4,2024-01-24 14:37:56,0.0
4272,-321,650,-27,-49,5,2024-01-24 14:37:56,0.0
4307,-335,662,-40,-38,-10,2024-01-24 14:37:56,0.0
4313,-280,662,-54,-20,-10,2024-01-24 14:37:56,0.0
4252,-326,705,-99,-2,-8,2024-01-24 14:37:56,0.0
4262,-337,698,-124,5,-10,2024-01-24 14:37:56,0.0
4320,-307,663,-145,-16,-13,2024-01-24 14:37:56,0.0
4279,-316,663,-184,3,-23,2024-01-24 14:37:56,0.0
4271,-339,679,-218,4,-25,2024-01-24 14:37:56,0.0
4309,-293,697,-275,26,-30,2024-01-24 14:37:56,0.0
4250,-291,711,-334,29,-36,2024-01-24 14:37:56,0.0
4339,-300,772,-397,49,-48,2024-01-24 14:37:57,0.0
4243,-387,750,-410,56,-65,2024-01-24 14:37:57,0.0
4242,-409,737,-391,31,-64,2024-01-24 14:37:57,0.0
4275,-353,768,-350,35,-46,2024-01-24 14:37:57,0.0
4243,-382,757,-345,60,-45,2024-01-24 14:37:57,0.0
4263,-436,836,-294,25,-38,2024-01-24 14:37:57,0.0
4261,-400,799,-240,13,-25,2024-01-24 14:37:57,0.0
4281,-428,822,-182,22,-23,2024-01-24 14:37:57,0.0
4202,-416,874,-121,10,-15,2024-01-24 14:37:57,0.0
4261,-346,857,-99,-18,-2,2024-01-24 14:37:57,0.0
4303,-398,833,-97,-13,4,2024-01-24 14:37:57,0.0
4251,-375,865,-97,-18,-21,2024-01-24 14:37:57,0.0
4221,-341,845,-103,-26,-28,2024-01-24 14:37:57,0.0
4218,-383,846,-96,-30,-18,2024-01-24 14:37:57,0.0
4268,-326,814,-109,9,-6,2024-01-24 14:37:57,0.0
4228,-336,909,-128,-11,-7,2024-01-24 14:37:57,0.0
4232,-393,883,-122,-54,-10,2024-01-24 14:37:57,0.0
4263,-375,808,-89,-65,-13,2024-01-24 14:37:58,0.0
4197,-359,822,-79,-83,-3,2024-01-24 14:37:58,0.0
4252,-422,794,-35,-104,14,2024-01-24 14:37:58,0.0
4275,-483,807,40,-109,37,2024-01-24 14:37:58,0.0
4292,-327,796,82,-90,37,2024-01-24 14:37:58,0.0
4262,-312,814,92,-86,37,2024-01-24 14:37:58,0.0
4231,-344,755,65,-93,37,2024-01-24 14:37:58,0.0
4271,-371,717,73,-72,39,2024-01-24 14:37:58,0.0
4313,-337,787,74,-63,35,2024-01-24 14:37:58,0.0
4293,-312,757,52,-19,22,2024-01-24 14:37:58,0.0
4281,-388,783,23,-45,22,2024-01-24 14:37:58,0.0
4360,-352,651,30,11,19,2024-01-24 14:37:58,0.0
4327,-292,594,-14,142,31,2024-01-24 14:37:58,0.0
4073,-307,1084,-41,-133,27,2024-01-24 14:37:58,0.0
4352,-466,825,-51,-209,-8,2024-01-24 14:37:58,0.0
4409,-354,517,68,-100,2,2024-01-24 14:37:58,0.0
4294,-188,565,-36,237,12,2024-01-24 14:37:58,0.0
4033,-296,1012,-109,51,55,2024-01-24 14:37:58,0.0
4406,-528,981,-52,-132,38,2024-01-24 14:37:59,0.0
4500,-448,458,43,87,-22,2024-01-24 14:37:59,0.0
4064,-120,844,-29,48,5,2024-01-24 14:37:59,0.0
4207,-422,999,-80,-102,33,2024-01-24 14:37:59,0.0
4420,-463,490,28,49,36,2024-01-24 14:37:59,0.0
4136,-225,911,8,69,51,2024-01-24 14:37:59,0.0
4233,-429,990,5,-91,29,2024-01-24 14:37:59,0.0
4346,-539,638,105,-74,34,2024-01-24 14:37:59,0.0
4195,-190,793,102,91,46,2024-01-24 14:37:59,0.0
4194,-399,1015,41,-125,21,2024-01-24 14:37:59,0.0
4321,-428,723,56,-146,24,2024-01-24 14:37:59,0.0
4275,-299,692,34,87,40,2024-01-24 14:37:59,0.0
4218,-237,1024,-104,-1,4,2024-01-24 14:37:59,0.0
4241,-500,843,-111,-59,-8,2024-01-24 14:37:59,0.0
4331,-414,748,-81,32,12,2024-01-24 14:37:59,0.0
4263,-279,860,-107,91,2,2024-01-24 14:37:59,0.0
4200,-419,1015,-109,-59,-11,2024-01-24 14:37:59,0.0
4293,-406,770,-89,-33,-11,2024-01-24 14:38:00,0.0
4206,-328,766,-85,106,15,2024-01-24 14:38:00,0.0
4220,-387,993,-75,-13,6,2024-01-24 14:38:00,0.0
4262,-490,945,-11,-71,0,2024-01-24 14:38:00,0.0
4280,-297,851,-4,-45,15,2024-01-24 14:38:00,0.0
4211,-333,880,-22,-65,-1,2024-01-24 14:38:00,0.0
4240,-437,847,-18,-88,18,2024-01-24 14:38:00,0.0
4261,-392,873,-16,-57,13,2024-01-24 14:38:00,0.0
4258,-399,856,-29,-82,0,2024-01-24 14:38:00,0.0
4268,-337,769,-34,-82,4,2024-01-24 14:38:00,0.0
4270,-361,784,-57,-62,10,2024-01-24 14:38:00,0.0
4264,-321,802,-85,-52,2,2024-01-24 14:38:00,0.0
4255,-392,779,-95,-50,9,2024-01-24 14:38:01,0.0
4261,-321,827,-114,-40,-9,2024-01-24 14:38:02,0.0
4282,-406,830,-127,-71,-8,2024-01-24 14:38:02,0.0
4217,-414,805,-105,-41,-4,2024-01-24 14:38:02,0.0
4278,-374,781,-78,-44,-7,2024-01-24 14:38:02,0.0
4276,-404,768,-46,-43,-6,2024-01-24 14:38:02,0.0
4283,-411,737,-14,-12,13,2024-01-24 14:38:02,0.0
4271,-361,811,37,-58,20,2024-01-24 14:38:02,0.0
4236,-405,786,65,-81,24,2024-01-24 14:38:02,0.0
4305,-383,724,117,-59,30,2024-01-24 14:38:02,0.0
4274,-369,643,-39,53,-3,2024-01-24 14:38:02,0.0
4181,-310,923,-48,42,12,2024-01-24 14:38:02,0.0
4251,-349,837,-16,-31,37,2024-01-24 14:38:02,0.0
4255,-294,908,-56,-49,17,2024-01-24 14:38:02,0.0
4305,-357,833,-54,-20,10,2024-01-24 14:38:03,0.0
4201,-382,876,-68,-29,-4,2024-01-24 14:38:03,0.0
4304,-368,872,-40,-13,12,2024-01-24 14:38:03,0.0
4259,-356,870,-38,-13,17,2024-01-24 14:38:03,0.0
4242,-351,939,-34,-16,18,2024-01-24 14:38:03,0.0
4235,-362,900,-54,-45,10,2024-01-24 14:38:03,0.0
4263,-375,887,-64,-8,13,2024-01-24 14:38:03,0.0
4240,-338,920,-88,-24,12,2024-01-24 14:38:03,0.0
4205,-430,878,-74,-49,5,2024-01-24 14:38:03,0.0
4266,-387,941,-45,-51,10,2024-01-24 14:38:03,0.0
4222,-387,909,-50,-72,3,2024-01-24 14:38:03,
4240,-370,849,-52,-78,5,2024-01-24 14:38:03,0.0
4244,-400,846,-37,-82,9,2024-01-24 14:38:03,0.0
4254,-378,798,-52,-72,7,2024-01-24 14:38:03,0.0
4317,-380,826,-47,-54,14,2024-01-24 14:38:04,0.0
4237,-407,840,-62,-23,0,2024-01-24 14:38:04,0.0
4270,-369,814,-71,2,6,2024-01-24 14:38:04,0.0
4221,-389,890,-78,12,12,2024-01-24 14:38:04,0.0
4223,-357,807,-88,28,4,2024-01-24 14:38:04,0.0
4270,-418,864,-55,-69,6,2024-01-24 14:38:04,0.0
4232,-401,927,-44,-135,-14,2024-01-24 14:38:04,0.0
4331,-421,853,-18,-155,-11,2024-01-24 14:38:04,0.0
4318,-384,652,17,-20,5,2024-01-24 14:38:04,0.0
4241,-282,657,-13,151,25,2024-01-24 14:38:04,0.0
4195,-342,963,-49,2,38,2024-01-24 14:38:04,0.0
4235,-404,910,-31,-64,-2,2024-01-24 14:38:04,0.0
4353,-352,806,8,-71,-32,2024-01-24 14:38:04,0.0
4232,-293,673,-43,71,-17,2024-01-24 14:38:04,0.0
4198,-287,819,-60,58,29,2024-01-24 14:38:04,0.0
4218,-344,935,-100,61,28,2024-01-24 14:38:04,0.0
4285,-439,963,-84,-67,0,2024-01-24 14:38:04,0.0
4289,-387,829,-34,-20,-31,2024-01-24 14:38:04,0.0
4235,-302,802,-62,-14,-20,2024-01-24 14:38:04,0.0
4191,-298,899,-107,13,1,2024-01-24 14:38:05,0.0
4233,-371,947,-127,-17,9,2024-01-24 14:38:05,0.0
4375,-407,946,-87,21,-11,2024-01-24 14:38:05,0.0
4224,-375,917,-76,-14,-49,2024-01-24 14:38:05,0.0
4237,-222,825,-84,-26,-32,2024-01-24 14:38:05,0.0
4239,-370,798,-99,7,3,2024-01-24 14:38:05,0.0
4271,-292,866,-109,5,17,2024-01-24 14:38:05,0.0
4231,-449,972,-83,0,18,2024-01-24 14:38:05,0.0
4245,-275,896,-44,-55,15,2024-01-24 14:38:05,0.0
4247,-333,886,-64,-37,13,2024-01-24 14:38:05,0.0
4266,-416,882,-32,-48,16,2024-01-24 14:38:05,0.0
4234,-365,928,-21,-74,23,2024-01-24 14:38:05,0.0
4223,-326,919,-35,-49,20,2024-01-24 14:38:05,0.0
4242,-347,854,-58,-84,20,2024-01-24 14:38:05,0.0
4207,-343,894,-55,-56,20,2024-01-24 14:38:05,0.0
4241,-372,862,-57,-45,17,2024-01-24 14:38:05,0.0
4268,-376,901,-62,-66,17,2024-01-24 14:38:05,0.0
4251,-351,879,-86,-65,9,2024-01-24 14:38:05,0.0
4247,-347,861,-102,-51,5,2024-01-24 14:38:05,0.0
4244,-433,836,-104,-27,11,2024-01-24 14:38:06,0.0
4253,-466,902,-77,-39,21,2024-01-24 14:38:06,0.0
4260,-363,858,-56,-26,16,2024-01-24 14:38:06,0.0
4234,-454,887,-41,-23,13,2024-01-24 14:38:06,0.0
4258,-346,863,-22,-19,16,2024-01-24 14:38:06,0.0
4240,-383,901,-25,-21,23,2024-01-24 14:38:06,0.0
4283,-394,857,-6,-25,15,2024-01-24 14:38:06,0.0
4229,-392,857,1,-20,20,2024-01-24 14:38:06,0.0
4230,-370,856,6,-34,22,2024-01-24 14:38:06,0.0
4279,-380,877,0,-35,20,2024-01-24 14:38:06,0.0
4246,-404,903,0,-15,13,2024-01-24 14:38:06,0.0
4246,-350,872,-11,-33,13,2024-01-24 14:38:06,0.0
4221,-362,853,-17,-49,18,2024-01-24 14:38:06,0.0
4272,-377,836,-25,-15,12,2024-01-24 14:38:06,0.0
4256,-364,845,-32,-25,9,2024-01-24 14:38:06,0.0
4248,-368,858,-49,-15,13,2024-01-24 14:38:06,0.0
4244,-380,908,-68,-20,10,2024-01-24 14:38:06,0.0
4244,-401,868,-89,-20,4,2024-01-24 14:38:06,0.0
4211,-382,849,-93,-40,7,2024-01-24 14:38:07,0.0
4277,-470,879,-88,-18,6,2024-01-24 14:38:07,0.0
4245,-450,880,-58,-18,10,2024-01-24 14:38:07,0.0
4281,-371,897,-52,-23,9,2024-01-24 14:38:07,0.0
4241,-414,894,-66,-25,1,2024-01-24 14:38:07,0.0
4238,-416,904,-57,-25,-14,2024-01-24 14:38:07,0.0
4213,-424,834,-36,-60,-13,2024-01-24 14:38:07,0.0
4285,-360,822,-3,-65,8,2024-01-24 14:38:07,0.0
4270,-339,883,-6,-39,6,2024-01-24 14:38:07,0.0
4257,-377,845,-16,-59,4,2024-01-24 14:38:07,0.0
4243,-432,831,-7,-69,2,2024-01-24 14:38:07,0.0
4252,-380,821,23,-82,10,2024-01-24 14:38:07,0.0
4269,-369,851,25,-72,8,2024-01-24 14:38:07,0.0
4236,-357,842,23,-75,11,2024-01-24 14:38:07,0.0
4293,-345,734,16,-81,17,2024-01-24 14:38:07,0.0
4274,-347,787,-13,-38,25,2024-01-24 14:38:07,0.0
4293,-384,840,-32,-35,5,2024-01-24 14:38:07,0.0
4267,-342,735,-41,-17,2,2024-01-24 14:38:08,0.0
4263,-388,808,-63,-26,-4,2024-01-24 14:38:08,0.0
4271,-389,852,-50,-50,-5,2024-01-24 14:38:08,0.0
4298,-373,775,-43,-37,6,2024-01-24 14:38:08,0.0
4293,-333,762,-33,-5,10,2024-01-24 14:38:08,0.0
4234,-382,793,-17,-24,13,2024-01-24 14:38:08,0.0
4265,-352,844,-1,-66,13,2024-01-24 14:38:08,0.0
4278,-388,730,15,-77,5,2024-01-24 14:38:08,0.0
4267,-326,737,12,-38,13,2024-01-24 14:38:08,0.0
4284,-327,797,-7,-9,10,2024-01-24 14:38:08,0.0
4276,-336,792,-21,-20,4,2024-01-24 14:38:08,0.0
4269,-302,792,-27,-34,0,2024-01-24 14:38:08,0.0
4251,-344,769,-43,-41,-2,2024-01-24 14:38:08,0.0
4244,-313,784,-46,-16,6,2024-01-24 14:38:08,0.0
4305,-348,766,-46,3,7,2024-01-24 14:38:08,0.0
4252,-325,783,-46,18,12,2024-01-24 14:38:08,0.0
4264,-310,878,-70,-95,-8,2024-01-24 14:38:08,0.0
4223,-373,770,-61,-104,-8,2024-01-24 14:38:09,0.0
4283,-282,779,-73,-86,8,2024-01-24 14:38:09,0.0
4274,-326,746,-99,-38,11,2024-01-24 14:38:09,0.0
4338,-329,683,-85,19,-8,2024-01-24 14:38:09,0.0
4250,-277,701,-121,91,-5,2024-01-24 14:38:09,0.0
4258,-310,869,-131,26,-22,2024-01-24 14:38:09,0.0
4231,-383,846,-117,13,-46,2024-01-24 14:38:09,
4454,-304,629,-117,63,-53,2024-01-24 14:38:09,0.0
4301,-268,746,-140,326,-87,2024-01-24 14:38:09,0.0
4112,-155,975,-241,205,-41,2024-01-24 14:38:09,0.0
3982,-278,1262,-272,-89,-48,2024-01-24 14:38:09,0.0
4441,-412,924,-217,-314,-69,2024-01-24 14:38:09,0.0
4296,-381,548,-119,83,-54,2024-01-24 14:38:09,0.0
4146,-352,1161,-44,31,-7,2024-01-24 14:38:09,0.0
4080,-401,1014,80,-239,13,2024-01-24 14:38:09,0.0
4656,-321,551,140,69,-3,2024-01-24 14:38:09,0.0
4095,-38,1031,28,44,9,2024-01-24 14:38:09,0.0
4016,-372,1167,54,-85,22,2024-01-24 14:38:09,0.0
4235,-283,857,88,-172,52,2024-01-24 14:38:10,0.0
4406,-41,790,-5,-28,70,2024-01-24 14:38:10,0.0
4290,-194,944,-63,15,-1,2024-01-24 14:38:10,0.0
4061,-227,928,-50,-147,22,2024-01-24 14:38:10,0.0
4462,-147,585,-25,24,59,2024-01-24 14:38:10,0.0
4141,-210,1073,-96,-55,11,2024-01-24 14:38:10,0.0
4309,-388,766,-56,-64,4,2024-01-24 14:38:10,0.0
4237,-264,843,-23,-95,2,2024-01-24 14:38:10,0.0
4339,-234,761,-52,-34,11,2024-01-24 14:38:10,0.0
4233,-324,738,-53,13,40,2024-01-24 14:38:10,0.0
4241,-295,891,-39,55,61,2024-01-24 14:38:10,0.0
4315,-331,836,-39,64,42,2024-01-24 14:38:10,0.0
4251,-273,920,-50,73,25,2024-01-24 14:38:10,0.0
4151,-308,982,-29,-50,40,2024-01-24 14:38:10,0.0
4183,-353,964,-17,-195,35,2024-01-24 14:38:10,0.0
4374,-329,838,10,-81,37,2024-01-24 14:38:10,0.0
4277,-268,834,-44,110,18,2024-01-24 14:38:10,0.0
4140,-370,966,-86,102,13,2024-01-24 14:38:10,0.0
4148,-388,1017,-58,-93,27,2024-01-24 14:38:11,0.0
4327,-407,836,8,-173,9,2024-01-24 14:38:11,0.0
4246,-394,912,71,-138,5,2024-01-24 14:38:11,0.0
4255,-346,780,61,-22,24,2024-01-24 14:38:11,0.0
4229,-348,845,83,-50,37,2024-01-24 14:38:11,0.0
4265,-368,858,118,-88,58,2024-01-24 14:38:11,0.0
4274,-417,829,132,-59,51,2024-01-24 14:38:11,0.0
4109,-403,907,153,-131,43,2024-01-24 14:38:11,0.0
4500,-268,581,166,-196,20,2024-01-24 14:38:11,0.0
4189,-281,651,141,-71,39,2024-01-24 14:38:11,0.0
4343,-188,784,14,12,32,2024-01-24 14:38:11,0.0
4234,-314,758,-37,-36,29,2024-01-24 14:38:11,0.0
4297,-357,854,-42,-80,7,2024-01-24 14:38:11,0.0
4321,-263,723,-30,-87,-23,2024-01-24 14:38:11,0.0
4216,-318,747,-13,-75,-14,2024-01-24 14:38:11,0.0
4232,-287,685,-72,-85,7,2024-01-24 14:38:11,0.0
4299,-311,666,-72,-68,17,2024-01-24 14:38:11,0.0
4370,-319,655,-101,40,20,2024-01-24 14:38:12,0.0
4203,-302,764,-66,17,22,2024-01-24 14:38:12,0.0
4311,-343,793,-60,-1,20,2024-01-24 14:38:12,0.0
4282,-333,684,-22,-32,16,2024-01-24 14:38:12,0.0
4295,-250,742,-39,-39,3,2024-01-24 14:38:12,0.0
4270,-254,719,-59,-44,7,2024-01-24 14:38:12,0.0
4283,-348,731,-71,-14,1,2024-01-24 14:38:12,0.0
4259,-323,744,-44,-11,3,2024-01-24 14:38:12,0.0
4281,-305,712,-52,-25,9,2024-01-24 14:38:12,0.0
4302,-300,741,-50,32,1,2024-01-24 14:38:12,0.0
4329,-313,698,-24,152,-8,2024-01-24 14:38:12,0.0
4159,-410,760,-51,51,9,2024-01-24 14:38:12,0.0
4319,-356,830,-57,78,-3,2024-01-24 14:38:12,0.0
4265,-288,908,-15,-23,15,2024-01-24 14:38:12,0.0
4167,-251,815,-33,-4,16,2024-01-24 14:38:12,0.0
4366,-345,852,-23,-40,7,2024-01-24 14:38:12,0.0
4301,-331,701,-10,155,-2,2024-01-24 14:38:12,0.0
4214,-199,805,-109,136,-7,2024-01-24 14:38:12,0.0
4100,-287,1174,-105,-53,-23,2024-01-24 14:38:13,0.0
4186,-205,1023,-88,-229,-13,2024-01-24 14:38:13,0.0
4443,-334,630,-95,151,-32,2024-01-24 14:38:13,0.0
4077,-115,1118,-261,85,-37,2024-01-24 14:38:13,0.0
4081,-342,1245,-231,-90,-47,2024-01-24 14:38:13,0.0
4529,-258,762,-242,-90,-55,2024-01-24 14:38:13,0.0
4253,-182,857,-315,82,-66,2024-01-24 14:38:13,0.0
4075,-252,1162,-336,26,-71,2024-01-24 14:38:13,0.0
4348,-413,815,-304,-61,-49,2024-01-24 14:38:13,0.0
4294,-242,873,-285,60,-41,2024-01-24 14:38:13,0.0
4122,-302,1112,-283,12,-69,2024-01-24 14:38:13,0.0
4205,-369,929,-204,-85,-43,2024-01-24 14:38:13,0.0
4266,-343,939,-151,-75,-7,2024-01-24 14:38:13,0.0
4233,-356,952,-114,-1,-20,2024-01-24 14:38:13,0.0
4263,-346,947,-59,-17,4,2024-01-24 14:38:13,0.0
4202,-344,911,27,40,33,2024-01-24 14:38:13,0.0
4130,-349,1032,62,-80,67,2024-01-24 14:38:13,0.0
4295,-378,1002,103,-84,38,2024-01-24 14:38:14,0.0
4259,-290,861,169,-99,53,2024-01-24 14:38:14,0.0
4246,-215,887,137,-11,64,2024-01-24 14:38:14,0.0
4404,-230,896,129,47,40,2024-01-24 14:38:14,0.0
4044,-285,962,104,53,45,2024-01-24 14:38:14,0.0
4203,-186,1076,33,-73,48,2024-01-24 14:38:14,0.0
4075,-187,999,-12,-171,45,2024-01-24 14:38:14,0.0
4413,-307,830,-1,-112,71,2024-01-24 14:38:14,0.0
4377,-314,911,-56,113,4,2024-01-24 14:38:14,0.0
4083,-399,1147,66,-12,45,2024-01-24 14:38:14,0.0
4177,-380,1044,109,-150,40,2024-01-24 14:38:14,0.0
4272,-341,905,156,-166,37,2024-01-24 14:38:14,0.0
4298,-222,847,110,-26,44,2024-01-24 14:38:14,0.0
4404,-234,867,50,58,15,2024-01-24 14:38:14,0.0
4109,-234,1012,-65,24,1,2024-01-24 14:38:14,0.0
4257,-200,1035,-166,-40,-8,2024-01-24 14:38:14,0.0
4153,-437,1011,-98,-124,-17,2024-01-24 14:38:14,0.0
4265,-330,880,-49,-33,20,2024-01-24 14:38:14,0.0
4213,-341,925,-32,-71,21,2024-01-24 14:38:15,
4401,-252,895,-51,-32,1,2024-01-24 14:38:15,0.0
4239,-288,870,-71,41,-7,2024-01-24 14:38:15,0.0
4190,-269,934,-64,-1,9,2024-01-24 14:38:15,0.0
4217,-367,905,-41,-92,25,2024-01-24 14:38:15,0.0
4257,-329,874,24,-68,26,2024-01-24 14:38:15,0.0
4269,-374,854,88,-65,51,2024-01-24 14:38:15,0.0
4227,-362,903,137,-43,56,2024-01-24 14:38:15,0.0
4253,-270,830,159,-79,59,2024-01-24 14:38:15,0.0
4240,-246,882,116,-46,52,2024-01-24 14:38:15,0.0
4205,-236,918,45,-92,50,2024-01-24 14:38:15,0.0
4337,-328,791,4,-78,38,2024-01-24 14:38:15,0.0
4273,-331,767,-9,0,49,2024-01-24 14:38:15,0.0
4242,-334,762,-31,81,58,2024-01-24 14:38:15,0.0
4175,-341,998,-29,7,87,2024-01-24 14:38:15,0.0
4256,-358,943,-17,-62,88,2024-01-24 14:38:15,0.0
4307,-406,942,35,-105,33,2024-01-24 14:38:15,0.0
4252,-444,911,49,-111,-10,2024-01-24 14:38:16,0.0
4234,-294,790,56,-51,-5,2024-01-24 14:38:16,0.0
4163,-295,854,-14,-69,25,2024-01-24 14:38:16,0.0
4294,-364,931,-58,-91,12,2024-01-24 14:38:16,0.0
4297,-397,815,-96,-141,-11,2024-01-24 14:38:16,0.0
4216,-382,838,-82,-38,-17,2024-01-24 14:38:16,0.0
4215,-331,800,-38,-63,17,2024-01-24 14:38:16,0.0
4244,-450,832,-35,-76,15,2024-01-24 14:38:16,0.0
4262,-377,781,-22,-59,0,2024-01-24 14:38:16,0.0
4232,-386,746,-23,-64,-8,2024-01-24 14:38:16,0.0
4341,-294,702,-50,-20,-17,2024-01-24 14:38:16,0.0
4220,-354,737,-89,-22,-17,2024-01-24 14:38:16,0.0
4281,-338,728,-97,-13,-13,2024-01-24 14:38:16,0.0
4291,-372,765,-104,5,-12,2024-01-24 14:38:16,0.0
4290,-344,729,-93,28,-16,2024-01-24 14:38:16,0.0
4239,-342,794,-75,-27,-6,2024-01-24 14:38:16,0.0
4286,-366,732,-80,-7,0,2024-01-24 14:38:16,0.0
4268,-363,801,-60,-8,8,2024-01-24 14:38:16,0.0
4224,-411,833,-20,-12,28,2024-01-24 14:38:17,0.0
4318,-339,777,28,-23,43,2024-01-24 14:38:17,0.0
4186,-262,905,-16,4,23,2024-01-24 14:38:17,0.0
4300,-371,849,-34,-38,14,2024-01-24 14:38:17,0.0
4267,-391,823,-12,-35,20,2024-01-24 14:38:17,0.0
4263,-323,832,-4,6,23,2024-01-24 14:38:17,0.0
4248,-360,837,-15,-4,25,2024-01-24 14:38:17,0.0
4252,-353,835,-15,-11,31,2024-01-24 14:38:17,0.0
4279,-326,865,-25,-15,23,2024-01-24 14:38:17,0.0
4239,-339,802,-31,-18,21,2024-01-24 14:38:17,0.0
4302,-385,880,-32,-34,17,2024-01-24 14:38:17,0.0
4233,-359,854,-40,-15,17,2024-01-24 14:38:17,0.0
4247,-366,894,-34,-11,23,2024-01-24 14:38:17,0.0
4270,-383,898,-60,-20,25,2024-01-24 14:38:17,0.0
4229,-393,890,-64,-24,11,2024-01-24 14:38:17,0.0
4261,-344,867,-65,4,9,2024-01-24 14:38:17,0.0
4286,-427,810,-87,54,-12,2024-01-24 14:38:17,0.0
4383,-402,1051,29,60,4,2024-01-24 14:38:18,0.0
4106,-344,698,-30,-24,12,2024-01-24 14:38:18,0.0
4253,-401,1056,-18,-102,20,2024-01-24 14:38:18,0.0
4251,-349,822,-40,-138,23,2024-01-24 14:38:18,0.0
4325,-394,843,-4,14,15,2024-01-24 14:38:18,0.0
4220,-271,978,-17,-11,16,2024-01-24 14:38:18,0.0
4293,-515,723,56,-10,39,2024-01-24 14:38:18,0.0
4310,-293,723,74,42,45,2024-01-24 14:38:18,0.0
4263,-312,925,-23,-13,-7,2024-01-24 14:38:18,0.0
4271,-7,892,-237,16,-73,2024-01-24 14:38:18,0.0
4259,-113,909,-489,69,-86,2024-01-24 14:38:18,0.0
4159,-419,1142,-599,67,-148,2024-01-24 14:38:18,0.0
4188,-481,1100,-548,35,-141,2024-01-24 14:38:18,0.0
4219,-465,1047,-479,78,-145,2024-01-24 14:38:18,0.0
4186,-488,1093,-359,73,-134,2024-01-24 14:38:18,0.0
4142,-332,1027,-271,28,-104,2024-01-24 14:38:18,0.0
4222,-404,1011,-188,-3,-46,2024-01-24 14:38:18,0.0
4214,-322,1008,-130,-17,-23,2024-01-24 14:38:18,0.0
4240,-437,968,-51,-43,-7,2024-01-24 14:38:19,0.0
4441,-464,738,-51,-149,-35,2024-01-24 14:38:19,0.0
4115,-445,1179,112,-115,-16,2024-01-24 14:38:19,0.0
4056,-142,1002,144,-178,54,2024-01-24 14:38:19,0.0
4407,-220,737,98,-167,76,2024-01-24 14:38:19,0.0
4394,-197,760,54,20,63,2024-01-24 14:38:19,0.0
4224,-461,894,153,36,66,2024-01-24 14:38:19,0.0
4269,-272,870,235,-53,61,2024-01-24 14:38:19,0.0
4367,-379,703,248,-39,55,2024-01-24 14:38:19,0.0
4346,-245,742,237,84,53,2024-01-24 14:38:19,0.0
4165,-298,1161,232,-8,96,2024-01-24 14:38:19,0.0
4120,-206,1070,219,-117,116,2024-01-24 14:38:19,0.0
4639,-302,670,216,-53,45,2024-01-24 14:38:19,0.0
3941,-112,1083,128,201,14,2024-01-24 14:38:19,0.0
4159,-194,1343,42,-147,38,2024-01-24 14:38:19,0.0
4306,-404,859,46,-286,-71,2024-01-24 14:38:19,0.0
4448,-174,728,21,11,-57,2024-01-24 14:38:19,0.0
3990,125,1047,-179,-13,-28,2024-01-24 14:38:20,0.0
4194,-93,1031,-417,-100,-73,2024-01-24 14:38:20,0.0
4353,-261,750,-538,-18,-113,2024-01-24 14:38:20,0.0
4222,-256,800,-528,207,-103,2024-01-24 14:38:20,0.0
4157,-151,1079,-608,-70,-83,2024-01-24 14:38:20,0.0
4336,-427,675,-530,-97,-115,2024-01-24 14:38:20,0.0
4459,-429,687,-353,47,-28,2024-01-24 14:38:20,0.0
4126,-250,983,-292,13,-16,2024-01-24 14:38:20,0.0
4258,-184,988,-335,-69,-40,2024-01-24 14:38:20,0.0
4276,-370,859,-359,-12,-73,2024-01-24 14:38:20,0.0
4342,-370,1020,-267,-5,-89,2024-01-24 14:38:20,0.0
4243,-267,937,-144,-4,-93,2024-01-24 14:38:20,0.0
4287,-471,912,60,21,-43,2024-01-24 14:38:20,0.0
4403,-403,757,295,85,-35,2024-01-24 14:38:20,
4112,-139,1007,422,21,50,2024-01-24 14:38:20,0.0
4174,-170,934,476,-89,97,2024-01-24 14:38:20,0.0
4339,-287,853,578,-17,81,2024-01-24 14:38:20,0.0
4134,-254,879,703,78,130,2024-01-24 14:38:21,0.0
4157,-84,1066,696,-124,160,2024-01-24 14:38:21,0.0
4235,41,834,604,-119,154,2024-01-24 14:38:21,0.0
4247,-101,783,429,53,83,2024-01-24 14:38:21,0.0
4375,44,687,278,131,82,2024-01-24 14:38:21,0.0
4013,76,1122,88,31,127,2024-01-24 14:38:21,0.0
4222,-163,1241,0,-103,69,2024-01-24 14:38:21,0.0
4284,-263,901,63,-147,46,2024-01-24 14:38:21,0.0
4409,-269,727,101,129,-2,2024-01-24 14:38:21,0.0
4138,61,1048,52,110,33,2024-01-24 14:38:21,0.0
4009,-10,1175,-37,-72,24,2024-01-24 14:38:21,0.0
4197,-336,936,-26,-119,54,2024-01-24 14:38:21,0.0
4373,-119,857,9,141,71,2024-01-24 14:38:21,0.0
4018,-209,1305,94,65,156,2024-01-24 14:38:21,0.0
4026,-483,1267,249,-293,152,2024-01-24 14:38:21,0.0
4250,26,808,289,-373,101,2024-01-24 14:38:21,0.0
4552,219,498,28,-181,108,2024-01-24 14:38:21,0.0
4425,481,621,-366,187,58,2024-01-24 14:38:21,0.0
4319,-89,875,-703,138,-75,2024-01-24 14:38:22,0.0
4188,-481,1058,-648,-9,-93,2024-01-24 14:38:22,0.0
4397,-312,924,-517,-103,-143,2024-01-24 14:38:22,0.0
4126,-342,979,-378,-59,-97,2024-01-24 14:38:22,0.0
4270,-420,940,-271,-99,-22,2024-01-24 14:38:22,0.0
4212,-554,891,-55,-158,12,2024-01-24 14:38:22,0.0
4214,-366,975,36,-184,0,2024-01-24 14:38:22,0.0
4254,-250,891,40,-78,17,2024-01-24 14:38:22,0.0
4232,-298,784,60,-40,38,2024-01-24 14:38:22,0.0
4280,-265,803,72,-19,52,2024-01-24 14:38:22,0.0
4272,-224,722,153,-34,80,2024-01-24 14:38:22,0.0
4362,-313,727,79,-81,96,2024-01-24 14:38:22,0.0
4492,-231,737,-29,-21,-51,2024-01-24 14:38:22,0.0
4129,-172,786,-67,-115,-12,2024-01-24 14:38:22,0.0
4317,-272,699,13,-20,60,2024-01-24 14:38:22,0.0
4179,-277,792,-2,-77,95,2024-01-24 14:38:22,0.0
4376,-429,768,7,-49,55,2024-01-24 14:38:22,0.0
4178,-412,730,49,-113,89,2024-01-24 14:38:23,0.0
4281,-252,708,77,-243,92,2024-01-24 14:38:23,0.0
4311,-256,570,34,-130,87,2024-01-24 14:38:23,0.0
4274,-328,697,2,-162,81,2024-01-24 14:38:23,0.0
4384,-313,695,-47,-158,34,2024-01-24 14:38:23,0.0
4215,-390,632,-50,-132,23,2024-01-24 14:38:23,0.0
4393,-397,559,-41,23,17,2024-01-24 14:38:23,0.0
4260,-347,716,-31,29,23,2024-01-24 14:38:23,0.0
4326,-328,685,-57,54,35,2024-01-24 14:38:23,0.0
4265,-372,631,-95,21,10,2024-01-24 14:38:23,0.0
4291,-470,650,-78,-14,17,2024-01-24 14:38:23,0.0
4287,-302,597,-97,-64,-19,2024-01-24 14:38:23,0.0
4253,-351,619,-94,-34,22,2024-01-24 14:38:23,0.0
4382,-311,584,-27,-59,43,2024-01-24 14:38:23,0.0
4288,-422,581,-66,-49,7,2024-01-24 14:38:23,0.0
4313,-376,640,-108,19,-15,2024-01-24 14:38:23,0.0
4299,-472,704,-118,32,-10,2024-01-24 14:38:23,0.0
4191,-391,752,-91,-4,-1,2024-01-24 14:38:25,0.0
4382,-413,573,-114,13,-8,2024-01-24 14:38:25,0.0
4236,-514,667,-80,56,-1,2024-01-24 14:38:25,0.0
4288,-416,636,-47,29,4,2024-01-24 14:38:25,0.0
4257,-382,683,-48,4,16,2024-01-24 14:38:25,0.0
4253,-437,727,-48,-71,12,2024-01-24 14:38:25,0.0
4272,-433,656,-32,-60,9,2024-01-24 14:38:25,0.0
4300,-382,678,-36,-15,15,2024-01-24 14:38:25,0.0
4233,-519,774,-37,-26,-2,2024-01-24 14:38:25,0.0
4264,-429,668,-106,27,-6,2024-01-24 14:38:25,0.0
4265,-380,772,-73,-4,3,2024-01-24 14:38:25,0.0
4353,-383,671,-82,5,-9,2024-01-24 14:38:25,0.0
4211,-395,791,-84,38,-13,2024-01-24 14:38:25,0.0
4180,-315,830,-72,-19,17,2024-01-24 14:38:25,0.0
4354,-420,717,-118,-34,3,2024-01-24 14:38:25,0.0
4262,-503,748,-117,45,-10,2024-01-24 14:38:25,0.0
4255,-415,854,-69,2,4,2024-01-24 14:38:25,0.0
4279,-438,803,-105,-15,-25,2024-01-24 14:38:25,0.0
4237,-434,735,-98,-25,-19,2024-01-24 14:38:25,0.0
4249,-432,694,-87,-36,-8,2024-01-24 14:38:25,0.0
4281,-370,753,-103,-27,-14,2024-01-24 14:38:25,0.0
4243,-409,725,-113,-27,-11,2024-01-24 14:38:26,0.0
4270,-454,718,-114,-15,-3,2024-01-24 14:38:26,0.0
4282,-431,754,-94,-62,0,2024-01-24 14:38:26,0.0
4286,-439,717,-78,-36,1,2024-01-24 14:38:26,0.0
4286,-399,655,-76,-11,10,2024-01-24 14:38:26,0.0
4269,-389,774,-99,-2,-1,2024-01-24 14:38:26,0.0
4222,-436,740,-96,-37,14,2024-01-24 14:38:26,0.0
4311,-501,736,-76,-30,19,2024-01-24 14:38:26,0.0
4246,-417,748,-72,12,16,2024-01-24 14:38:26,0.0
4287,-473,731,-45,6,20,2024-01-24 14:38:26,0.0
4231,-456,789,-27,-18,12,2024-01-24 14:38:26,0.0
4272,-422,796,-26,-22,19,2024-01-24 14:38:26,0.0
4225,-415,775,-41,-40,25,2024-01-24 14:38:26,0.0
4354,-475,773,-65,-35,21,2024-01-24 14:38:26,0.0
4258,-412,789,-76,4,-1,2024-01-24 14:38:26,0.0
4279,-435,813,-84,0,7,2024-01-24 14:38:26,0.0
4247,-457,828,-93,-14,-2,2024-01-24 14:38:26,0.0
4283,-432,839,-88,-6,-4,2024-01-24 14:38:26,0.0
4247,-446,819,-100,7,-7,2024-01-24 14:38:27,0.0
4239,-489,826,-87,-11,-9,2024-01-24 14:38:27,0.0
4285,-393,885,-89,-16,-16,2024-01-24 14:38:27,0.0
4254,-449,807,-110,2,-33,2024-01-24 14:38:27,0.0
4278,-408,705,-115,51,-30,2024-01-24 14:38:29,0.0
4263,-398,960,-78,57,-18,2024-01-24 14:38:29,
4216,-332,856,-92,-16,-21,2024-01-24 14:38:29,0.0
4325,-367,823,-103,14,-22,2024-01-24 14:38:29,0.0
4215,-433,860,-97,42,-22,2024-01-24 14:38:29,0.0
4247,-329,915,-98,14,-13,2024-01-24 14:38:29,0.0
4296,-293,883,-129,53,-26,2024-01-24 14:38:29,0.0
4704,-342,572,-185,145,-78,2024-01-24 14:38:29,0.0
4019,-282,680,-207,313,-112,2024-01-24 14:38:29,0.0
4233,-447,755,-94,-3,6,2024-01-24 14:38:29,0.0
4261,-457,827,-80,-22,7,2024-01-24 14:38:29,0.0
4222,-401,817,-81,-53,10,2024-01-24 14:38:29,0.0
4298,-456,770,-68,-53,9,2024-01-24 14:38:30,0.0
4241,-514,767,-43,-34,12,2024-01-24 14:38:30,0.0
4280,-397,770,-3,-4,19,2024-01-24 14:38:30,0.0
4287,-460,792,5,-13,25,2024-01-24 14:38:30,0.0
4273,-410,849,18,-18,12,2024-01-24 14:38:30,0.0
4193,-430,797,15,-67,13,2024-01-24 14:38:30,0.0
4326,-486,727,55,-84,21,2024-01-24 14:38:30,0.0
4265,-446,656,89,0,34,2024-01-24 14:38:30,0.0
4207,-405,707,98,-24,56,2024-01-24 14:38:30,0.0
4289,-414,779,64,-27,67,2024-01-24 14:38:30,0.0
4284,-416,730,26,-25,67,2024-01-24 14:38:30,0.0
4257,-304,863,-73,-20,35,2024-01-24 14:38:30,0.0
4327,-343,749,-146,-41,-11,2024-01-24 14:38:30,0.0
4219,-393,786,-202,-28,-50,2024-01-24 14:38:30,0.0
4268,-252,890,-282,-19,-81,2024-01-24 14:38:30,0.0
4213,-261,867,-416,-16,-98,2024-01-24 14:38:30,0.0
4340,-303,775,-534,23,-129,2024-01-24 14:38:30,0.0
4202,-350,783,-591,56,-132,2024-01-24 14:38:30,0.0
4370,-432,801,-584,79,-129,2024-01-24 14:38:31,0.0
4186,-448,871,-535,95,-125,2024-01-24 14:38:31,0.0
4190,-457,970,-437,18,-86,2024-01-24 14:38:31,0.0
4264,-470,929,-346,25,-80,2024-01-24 14:38:31,0.0
4251,-511,810,-237,62,-46,2024-01-24 14:38:31,0.0
4270,-256,971,-219,113,-64,2024-01-24 14:38:33,0.0
4135,-440,1095,-179,-66,-80,2024-01-24 14:38:33,0.0
4216,-486,890,-66,-118,-67,2024-01-24 14:38:33,0.0
4281,-401,878,51,-66,-16,2024-01-24 14:38:33,0.0
4178,-331,890,116,-29,18,2024-01-24 14:38:33,0.0
4306,-362,961,178,2,51,2024-01-24 14:38:33,0.0
4348,-428,950,285,21,-2,2024-01-24 14:38:33,0.0
4122,-325,928,354,-133,8,2024-01-24 14:38:33,0.0
4290,-248,820,369,-189,16,2024-01-24 14:38:33,0.0
4360,-123,432,100,15,61,2024-01-24 14:38:33,0.0
4246,-139,432,111,15,102,2024-01-24 14:38:33,0.0
4219,-112,381,105,6,148,2024-01-24 14:38:33,0.0
4354,-76,402,60,-7,161,2024-01-24 14:38:33,0.0
4448,-137,437,29,-1,195,2024-01-24 14:38:33,0.0
4244,-132,467,-19,-62,105,2024-01-24 14:38:33,0.0
4305,-86,495,-106,-24,107,2024-01-24 14:38:33,0.0
4273,56,541,-155,-24,135,2024-01-24 14:38:33,0.0
4294,-6,619,-292,-1,115,2024-01-24 14:38:33,0.0
4222,66,564,-422,8,137,2024-01-24 14:38:33,0.0
4435,-31,706,-457,76,45,2024-01-24 14:38:33,0.0
4118,-5,752,-525,64,0,2024-01-24 14:38:33,0.0
4388,-20,842,-593,32,-15,2024-01-24 14:38:33,0.0
4148,62,726,-775,57,-61,2024-01-24 14:38:33,0.0
4544,-396,829,-632,138,-71,2024-01-24 14:38:33,0.0
4061,-181,1045,-496,184,-56,2024-01-24 14:38:33,0.0
4269,-287,1156,-385,85,-76,2024-01-24 14:38:34,0.0
4179,-643,1084,-168,90,-5,2024-01-24 14:38:34,0.0
4174,-378,1078,103,9,7,2024-01-24 14:38:34,0.0
4112,-294,941,244,-8,118,2024-01-24 14:38:34,0.0
4486,-226,850,305,5,56,2024-01-24 14:38:34,0.0
3996,-275,945,259,-81,70,2024-01-24 14:38:34,0.0
4381,-202,1001,288,-59,107,2024-01-24 14:38:34,0.0
4199,-278,954,286,-41,65,2024-01-24 14:38:34,0.0
4262,-45,760,186,-97,25,2024-01-24 14:38:34,0.0
4284,-128,784,55,-67,-14,2024-01-24 14:38:34,0.0
4234,-165,818,12,-51,11,2024-01-24 14:38:34,0.0
4321,-88,825,-84,-31,2,2024-01-24 14:38:34,0.0
4219,-199,812,-167,-73,10,2024-01-24 14:38:34,0.0
4293,-261,766,-157,-29,27,2024-01-24 14:38:34,0.0
4298,-392,844,-104,12,38,2024-01-24 14:38:34,0.0
4324,-206,878,-73,63,20,2024-01-24 14:38:34,0.0
4175,-235,1022,-111,2,12,2024-01-24 14:38:34,0.0
4227,-288,844,-115,17,21,2024-01-24 14:38:34,0.0
4216,-355,948,-102,-67,5,2024-01-24 14:38:35,0.0
4289,-387,860,-76,-40,-17,2024-01-24 14:38:35,0.0
4318,-243,861,-95,2,-46,2024-01-24 14:38:35,0.0
4176,-296,868,-114,24,-5,2024-01-24 14:38:35,0.0
4219,-334,868,-95,-19,34,2024-01-24 14:38:35,0.0
4309,-436,839,-32,-17,11,2024-01-24 14:38:35,0.0
4235,-278,950,53,-57,25,2024-01-24 14:38:35,0.0
4213,-205,856,43,-46,58,2024-01-24 14:38:35,0.0
4350,-283,855,2,-46,30,2024-01-24 14:38:35,0.0
4242,-344,847,12,-25,18,2024-01-24 14:38:35,0.0
4246,-244,906,28,-38,10,2024-01-24 14:38:35,0.0
4301,-227,807,-43,-44,2,2024-01-24 14:38:35,0.0
4231,-283,885,-60,-42,-4,2024-01-24 14:38:35,0.0
4256,-271,875,-66,-51,8,2024-01-24 14:38:35,0.0
4274,-326,849,-77,-32,-9,2024-01-24 14:38:35,0.0
4255,-302,867,-67,-40,-3,2024-01-24 14:38:35,0.0
4200,-263,791,-55,-40,10,2024-01-24 14:38:35,0.0
4283,-342,822,-45,-32,33,2024-01-24 14:38:36,0.0
4258,-336,851,-9,-6,34,2024-01-24 14:38:36,0.0
4238,-313,903,40,-53,40,2024-01-24 14:38:36,0.0
4249,-403,836,48,-52,35,2024-01-24 14:38:36,0.0
4290,-271,813,52,-19,43,2024-01-24 14:38:36,0.0
4259,-325,857,49,-7,55,2024-01-24 14:38:36,0.0
4241,-364,862,103,-12,64,2024-01-24 14:38:36,
4246,-318,878,138,-2,88,2024-01-24 14:38:36,0.0
4201,-406,959,172,-38,109,2024-01-24 14:38:36,0.0
4173,-433,952,300,-160,119,2024-01-24 14:38:36,0.0
4266,-463,781,376,-107,135,2024-01-24 14:38:36,0.0
4310,-451,837,459,-86,119,2024-01-24 14:38:36,0.0
4232,-223,826,441,-33,107,2024-01-24 14:38:36,0.0
4270,-317,784,390,-59,134,2024-01-24 14:38:36,0.0
4236,-323,842,365,-67,115,2024-01-24 14:38:36,0.0
4266,-366,820,365,-97,109,2024-01-24 14:38:36,0.0
4266,-314,835,355,-79,101,2024-01-24 14:38:36,0.0
4302,-282,722,264,-46,86,2024-01-24 14:38:37,0.0
4300,-240,805,155,-38,71,2024-01-24 14:38:37,0.0
4238,-303,817,78,-70,47,2024-01-24 14:38:37,0.0
4292,-185,747,-47,-54,13,2024-01-24 14:38:37,0.0
4235,-217,878,-184,-20,-11,2024-01-24 14:38:37,0.0
4228,-263,808,-298,-52,-47,2024-01-24 14:38:37,0.0
4317,-371,716,-386,-34,-56,2024-01-24 14:38:37,0.0
4311,-365,704,-456,26,-94,2024-01-24 14:38:39,0.0
4250,-332,763,-521,59,-100,2024-01-24 14:38:39,0.0
4240,-458,784,-553,61,-106,2024-01-24 14:38:39,0.0
4178,-418,826,-573,11,-102,2024-01-24 14:38:39,0.0
4449,-370,759,-619,-61,-159,2024-01-24 14:38:39,0.0
4122,-319,691,-689,-2,-192,2024-01-24 14:38:39,0.0
4272,-470,736,-681,28,-158,2024-01-24 14:38:39,0.0
4211,-571,824,-572,59,-89,2024-01-24 14:38:39,0.0
4224,-355,841,-494,2,-59,2024-01-24 14:38:39,0.0
4313,-516,826,-6,124,94,2024-01-24 14:38:39,0.0
4347,-584,897,177,137,39,2024-01-24 14:38:39,0.0
4295,-342,835,304,-19,-10,2024-01-24 14:38:39,0.0
4198,-181,775,261,8,-26,2024-01-24 14:38:39,0.0
4109,-143,861,81,8,37,2024-01-24 14:38:39,0.0
4184,-259,960,0,-54,57,2024-01-24 14:38:39,0.0
4228,-233,1026,-51,-24,51,2024-01-24 14:38:39,0.0
4300,-369,993,-53,-46,15,2024-01-24 14:38:39,0.0
4218,-223,955,-27,-57,-4,2024-01-24 14:38:39,0.0
4215,-231,864,-51,-80,15,2024-01-24 14:38:39,0.0
4311,-264,864,-42,68,26,2024-01-24 14:38:40,0.0
4162,-364,895,49,201,78,2024-01-24 14:38:40,0.0
4148,-388,1240,38,-219,57,2024-01-24 14:38:40,0.0
4363,-426,910,118,-155,-26,2024-01-24 14:38:40,0.0
4131,-226,819,54,-101,10,2024-01-24 14:38:40,0.0
4286,37,1086,-102,-101,42,2024-01-24 14:38:40,0.0
4230,-601,1000,-160,-87,-18,2024-01-24 14:38:40,0.0
4311,-500,815,-76,79,-26,2024-01-24 14:38:40,0.0
4196,-13,805,-153,173,16,2024-01-24 14:38:40,0.0
4297,-144,1043,-259,68,12,2024-01-24 14:38:40,0.0
4091,-407,1055,-308,63,-29,2024-01-24 14:38:40,0.0
4274,-567,1073,-205,-161,-64,2024-01-24 14:38:40,0.0
4274,-778,811,112,-142,-47,2024-01-24 14:38:40,0.0
4253,-176,682,166,17,-22,2024-01-24 14:38:40,0.0
4244,389,1053,-135,71,28,2024-01-24 14:38:40,0.0
4165,-180,1099,-469,-52,-61,2024-01-24 14:38:40,0.0
4424,-403,938,-502,22,-87,2024-01-24 14:38:40,0.0
4178,-333,1066,-385,119,-102,2024-01-24 14:38:41,0.0
4105,-342,1087,-289,-23,-74,2024-01-24 14:38:41,0.0
4257,-479,1056,-131,-50,-35,2024-01-24 14:38:41,0.0
4203,-508,1013,36,-83,-26,2024-01-24 14:38:41,0.0
4214,-270,1032,113,-121,3,2024-01-24 14:38:41,0.0
4113,-158,992,71,-132,15,2024-01-24 14:38:41,0.0
4156,-311,1031,9,-182,56,2024-01-24 14:38:41,0.0
4259,-242,1012,-22,-235,60,2024-01-24 14:38:41,0.0
4391,-492,781,46,-114,28,2024-01-24 14:38:41,0.0
4327,-345,660,110,-49,5,2024-01-24 14:38:41,0.0
4390,-402,497,200,9,41,2024-01-24 14:38:41,0.0
4280,-133,632,154,-12,30,2024-01-24 14:38:41,0.0
4280,-140,767,60,-21,38,2024-01-24 14:38:41,0.0
4286,-147,712,-35,36,33,2024-01-24 14:38:41,0.0
4263,-398,912,-12,79,43,2024-01-24 14:38:41,0.0
4271,-348,1026,15,105,14,2024-01-24 14:38:41,0.0
4096,-184,1089,-9,-34,-16,2024-01-24 14:38:41,0.0
4350,-326,839,2,30,-18,2024-01-24 14:38:41,0.0
4130,-299,1076,50,-112,10,2024-01-24 14:38:42,0.0
4271,-245,812,48,-6,17,2024-01-24 14:38:42,0.0
4118,-134,1022,-17,-63,40,2024-01-24 14:38:42,0.0
4228,-192,1059,-79,-179,44,2024-01-24 14:38:42,0.0
4443,-396,837,-59,-16,-8,2024-01-24 14:38:42,0.0
4082,-150,1171,-77,-154,14,2024-01-24 14:38:42,0.0
4558,-348,639,-68,-95,-49,2024-01-24 14:38:42,0.0
4135,-291,832,10,-44,-26,2024-01-24 14:38:42,0.0
4304,-274,620,35,-81,9,2024-01-24 14:38:42,0.0
4446,-310,711,86,-7,22,2024-01-24 14:38:42,0.0
4121,-98,1113,25,-95,48,2024-01-24 14:38:42,0.0
4331,-265,792,-35,-163,-4,2024-01-24 14:38:42,0.0
4482,-206,635,-57,7,-1,2024-01-24 14:38:42,0.0
4011,-130,1079,-153,-31,10,2024-01-24 14:38:42,0.0
4275,-341,893,-159,-198,-1,2024-01-24 14:38:42,0.0
4418,-417,652,-84,-52,-30,2024-01-24 14:38:42,0.0
4123,-230,678,-83,17,-25,2024-01-24 14:38:42,0.0
4172,-24,937,-162,-87,11,2024-01-24 14:38:43,0.0
4945,-123,282,-50,-264,201,2024-01-24 14:38:43,0.0
4136,35,609,-305,-14,-252,2024-01-24 14:38:43,0.0
4603,-149,606,-462,-130,-192,2024-01-24 14:38:43,0.0
3828,-151,871,-509,9,-14,2024-01-24 14:38:43,0.0
4668,167,648,-761,-22,-141,2024-01-24 14:38:43,0.0
4263,-57,555,-848,80,-145,2024-01-24 14:38:43,0.0
4189,-475,874,-794,114,-168,2024-01-24 14:38:43,0.0
4227,-472,665,-627,47,-107,2024-01-24 14:38:43,0.0
4355,-369,760,-444,156,-64,2024-01-24 14:38:43,0.0
4184,-417,911,-425,62,-111,2024-01-24 14:38:43,0.0
4038,-272,1149,-364,-216,-70,2024-01-24 14:38:43,
4360,-21,795,-342,-251,-71,2024-01-24 14:38:43,0.0
4198,-212,811,-319,-268,-57,2024-01-24 14:38:43,0.0
4438,-36,628,-354,-250,-188,2024-01-24 14:38:43,0.0
4474,-296,648,-355,-115,-165,2024-01-24 14:38:43,0.0
4395,12,769,-174,19,-165,2024-01-24 14:38:43,0.0
4167,-3,678,-110,29,-122,2024-01-24 14:38:43,0.0
4020,62,836,-17,-36,-15,2024-01-24 14:38:44,0.0
4302,103,751,5,-99,20,2024-01-24 14:38:44,0.0
4385,78,565,78,-125,4,2024-01-24 14:38:44,0.0
4299,172,512,133,-92,78,2024-01-24 14:38:44,0.0
4285,-138,717,263,-72,163,2024-01-24 14:38:44,0.0
4351,-401,578,479,-92,170,2024-01-24 14:38:44,0.0
4564,-410,40,624,-112,22,2024-01-24 14:38:44,0.0
3992,25,745,549,-160,89,2024-01-24 14:38:44,0.0
4459,-328,426,701,-168,188,2024-01-24 14:38:44,0.0
4445,-111,284,686,-5,150,2024-01-24 14:38:44,0.0
4422,-39,375,503,119,121,2024-01-24 14:38:44,0.0
4301,-192,535,412,188,111,2024-01-24 14:38:44,0.0
4287,108,516,381,200,101,2024-01-24 14:38:44,0.0
4236,27,656,194,112,65,2024-01-24 14:38:44,0.0
4116,-180,881,136,-2,46,2024-01-24 14:38:44,0.0
4306,-24,662,128,-178,63,2024-01-24 14:38:44,0.0
4389,-94,496,82,-46,48,2024-01-24 14:38:44,0.0
4222,-324,665,107,-3,90,2024-01-24 14:38:45,0.0
4316,-329,682,160,-30,103,2024-01-24 14:38:45,0.0
4292,-381,551,209,-120,123,2024-01-24 14:38:45,0.0
4246,-252,629,212,-156,130,2024-01-24 14:38:45,0.0
4260,-243,446,213,-163,186,2024-01-24 14:38:45,0.0
4421,-96,502,186,-78,142,2024-01-24 14:38:45,0.0
4370,-436,646,170,58,94,2024-01-24 14:38:45,0.0
4241,-192,587,117,-40,49,2024-01-24 14:38:45,0.0
4163,-175,679,11,-80,72,2024-01-24 14:38:45,0.0
4243,-129,555,-133,-117,66,2024-01-24 14:38:45,0.0
4532,-308,491,-182,3,33,2024-01-24 14:38:45,0.0
4333,-498,532,-126,27,0,2024-01-24 14:38:45,0.0
4296,-372,582,-51,0,11,2024-01-24 14:38:45,0.0
4250,-230,527,-47,-39,11,2024-01-24 14:38:45,0.0
4341,-325,532,-63,-37,20,2024-01-24 14:38:45,0.0
4361,-231,516,-96,-12,-3,2024-01-24 14:38:45,0.0
4335,-257,567,-145,-3,-30,2024-01-24 14:38:45,0.0
4215,-239,581,-202,-44,-59,2024-01-24 14:38:45,0.0
4299,-181,511,-306,-92,-62,2024-01-24 14:38:46,0.0
4353,-245,440,-361,-76,-72,2024-01-24 14:38:46,0.0
4364,-220,449,-404,-33,-62,2024-01-24 14:38:46,0.0
4431,-245,488,-422,52,-84,2024-01-24 14:38:46,0.0
4277,-276,544,-445,76,-93,2024-01-24 14:38:46,0.0
4332,-304,508,-392,63,-86,2024-01-24 14:38:46,0.0
4254,-324,515,-359,41,-63,2024-01-24 14:38:46,0.0
4286,-318,566,-316,44,-26,2024-01-24 14:38:46,0.0
4315,-267,661,-286,29,-36,2024-01-24 14:38:46,0.0
4292,-429,636,-190,12,-15,2024-01-24 14:38:46,0.0
4261,-232,635,-79,-30,0,2024-01-24 14:38:46,0.0
4251,-254,567,-60,-29,22,2024-01-24 14:38:46,0.0
4329,-280,570,-49,2,26,2024-01-24 14:38:46,0.0
4260,-300,708,-6,-25,36,2024-01-24 14:38:46,0.0
4298,-355,661,53,-77,43,2024-01-24 14:38:46,0.0
4326,-272,614,63,-86,29,2024-01-24 14:38:46,0.0
4333,-150,550,62,-57,26,2024-01-24 14:38:46,0.0
4313,-219,572,2,-38,17,2024-01-24 14:38:47,0.0
4309,-252,600,-22,-18,13,2024-01-24 14:38:47,0.0
4347,-294,571,-27,26,15,2024-01-24 14:38:47,0.0
4257,-243,632,-11,15,13,2024-01-24 14:38:47,0.0
4298,-219,655,-39,-34,5,2024-01-24 14:38:47,0.0
4286,-259,679,-57,-32,1,2024-01-24 14:38:47,0.0
4338,-264,613,-47,-9,-3,2024-01-24 14:38:47,0.0
4274,-253,626,-52,-18,-1,2024-01-24 14:38:47,0.0
4285,-297,623,-54,-8,12,2024-01-24 14:38:47,0.0
4281,-289,662,-50,-9,11,2024-01-24 14:38:47,0.0
4287,-255,600,-41,-3,3,2024-01-24 14:38:47,0.0
4258,-285,617,-28,-16,9,2024-01-24 14:38:47,0.0
4324,-263,601,-16,-26,17,2024-01-24 14:38:47,0.0
4319,-246,642,-28,-5,17,2024-01-24 14:38:47,0.0
4299,-229,707,-27,-13,25,2024-01-24 14:38:47,0.0
4292,-267,657,-33,-34,13,2024-01-24 14:38:47,0.0
4274,-226,635,-39,-43,12,2024-01-24 14:38:47,0.0
4289,-238,621,-58,-11,17,2024-01-24 14:38:47,0.0
4309,-305,613,-58,-13,4,2024-01-24 14:38:48,0.0
4317,-237,635,-65,0,8,2024-01-24 14:38:48,0.0
4260,-293,686,-63,-61,5,2024-01-24 14:38:48,0.0
4331,-273,639,-38,-45,6,2024-01-24 14:38:48,0.0
4287,-254,660,-46,-44,4,2024-01-24 14:38:48,0.0
4301,-265,617,-52,-33,10,2024-01-24 14:38:48,0.0
4259,-258,663,-54,-60,3,2024-01-24 14:38:48,0.0
4298,-272,646,-56,-50,7,2024-01-24 14:38:48,0.0
4279,-260,631,-52,-93,2,2024-01-24 14:38:48,0.0
4300,-258,635,-37,-69,2,2024-01-24 14:38:48,0.0
4299,-301,641,-39,-88,11,2024-01-24 14:38:48,0.0
4358,-256,542,-38,-38,12,2024-01-24 14:38:48,0.0
4329,-248,608,-41,-19,4,2024-01-24 14:38:48,0.0
4286,-253,568,-29,-28,16,2024-01-24 14:38:48,0.0
4306,-257,624,-36,-20,12,2024-01-24 14:38:48,0.0
4297,-260,629,-32,-28,9,2024-01-24 14:38:48,0.0
4354,-258,543,-44,2,13,2024-01-24 14:38:48,0.0
4256,-281,608,-31,-14,16,2024-01-24 14:38:49,0.0
4321,-230,599,-31,-36,18,2024-01-24 14:38:49,0.0
4289,-259,600,-32,-39,10,2024-01-24 14:38:49,0.0
4335,-277,529,-38,-5,11,2024-01-24 14:38:49,0.0
4284,-258,643,-35,-20,8,2024-01-24 14:38:49,0.0
4312,-249,611,-31,-25,14,2024-01-24 14:38:49,0.0
4296,-263,626,-23,-32,15,2024-01-24 14:38:49,
4322,-255,618,-19,-27,9,2024-01-24 14:38:49,0.0
4309,-276,654,-14,-39,10,2024-01-24 14:38:49,0.0
4284,-247,592,-35,-32,9,2024-01-24 14:38:49,0.0
4306,-280,577,-37,-13,5,2024-01-24 14:38:49,0.0
4299,-261,585,-31,16,10,2024-01-24 14:38:49,0.0
4257,-252,675,-34,-16,12,2024-01-24 14:38:49,0.0
4273,-269,646,-31,-51,16,2024-01-24 14:38:49,0.0
4324,-281,643,-20,-38,15,2024-01-24 14:38:49,0.0
4307,-291,591,-3,-24,9,2024-01-24 14:38:49,0.0
4313,-285,591,7,-24,22,2024-01-24 14:38:49,0.0
4282,-269,623,9,-48,16,2024-01-24 14:38:49,0.0
4282,-244,618,0,-46,17,2024-01-24 14:38:50,0.0
4312,-276,619,-11,-59,8,2024-01-24 14:38:50,0.0
4306,-246,575,-29,-31,6,2024-01-24 14:38:50,0.0
4311,-266,588,-30,-29,7,2024-01-24 14:38:50,0.0
4291,-237,620,-38,-18,7,2024-01-24 14:38:50,0.0
4268,-326,640,-35,-26,15,2024-01-24 14:38:50,0.0
4311,-367,628,12,-28,26,2024-01-24 14:38:50,0.0
4311,-317,606,63,-46,33,2024-01-24 14:38:50,0.0
4306,-261,635,72,-35,43,2024-01-24 14:38:50,0.0
4307,-177,613,8,-24,23,2024-01-24 14:38:50,0.0
4300,-221,623,-52,6,13,2024-01-24 14:38:50,0.0
4325,-288,638,-88,-10,0,2024-01-24 14:38:50,0.0
4287,-273,650,-79,-7,1,2024-01-24 14:38:50,0.0
4297,-291,598,-70,-11,1,2024-01-24 14:38:50,0.0
4290,-235,623,-103,9,2,2024-01-24 14:38:50,0.0
4317,-307,659,-90,-34,-3,2024-01-24 14:38:50,0.0
4264,-275,624,-78,-35,-1,2024-01-24 14:38:50,0.0
4321,-294,649,-58,-18,-3,2024-01-24 14:38:51,0.0
4286,-276,597,-42,6,1,2024-01-24 14:38:51,0.0
4283,-275,647,-49,-24,12,2024-01-24 14:38:51,0.0
4298,-272,648,-29,-40,10,2024-01-24 14:38:51,0.0
4292,-253,628,-10,-42,15,2024-01-24 14:38:51,0.0
4262,-251,646,-24,-38,6,2024-01-24 14:38:51,0.0
4262,-248,643,-33,-42,11,2024-01-24 14:38:51,0.0
4316,-279,632,-33,-29,7,2024-01-24 14:38:51,0.0
4265,-262,674,-25,-24,11,2024-01-24 14:38:51,0.0
4291,-258,648,-37,-31,10,2024-01-24 14:38:51,0.0
4281,-276,660,-41,-33,13,2024-01-24 14:38:51,0.0
4280,-285,669,-39,-30,7,2024-01-24 14:38:51,0.0
4294,-253,608,-30,-15,12,2024-01-24 14:38:51,0.0
4324,-300,648,-9,-22,18,2024-01-24 14:38:51,0.0
4283,-296,675,21,-50,20,2024-01-24 14:38:51,0.0
4304,-285,630,22,-21,28,2024-01-24 14:38:51,0.0
4294,-286,637,14,-37,25,2024-01-24 14:38:51,0.0
4311,-285,618,3,-21,23,2024-01-24 14:38:51,0.0
4300,-239,632,-7,-10,29,2024-01-24 14:38:52,0.0
4303,-282,668,-33,-25,16,2024-01-24 14:38:52,0.0
4312,-306,654,-32,-20,9,2024-01-24 14:38:52,0.0
4307,-237,660,-20,-13,17,2024-01-24 14:38:52,0.0
4293,-299,669,-23,-47,17,2024-01-24 14:38:52,0.0
4309,-313,648,3,-46,21,2024-01-24 14:38:52,0.0
4306,-285,644,27,-30,29,2024-01-24 14:38:52,0.0
4294,-330,656,21,-15,29,2024-01-24 14:38:52,0.0
4250,-256,706,26,-14,34,2024-01-24 14:38:52,0.0
4313,-345,702,28,-38,39,2024-01-24 14:38:52,0.0
4318,-323,607,41,-44,31,2024-01-24 14:38:52,0.0
4271,-244,649,31,-23,36,2024-01-24 14:38:52,0.0
4306,-243,656,-14,-35,19,2024-01-24 14:38:52,0.0
4285,-288,662,-54,-27,7,2024-01-24 14:38:52,0.0
4322,-234,641,-88,-21,10,2024-01-24 14:38:52,0.0
4276,-289,667,-116,-8,3,2024-01-24 14:38:52,0.0
4299,-351,688,-111,-27,6,2024-01-24 14:38:52,0.0
4291,-331,700,-91,-25,5,2024-01-24 14:38:53,0.0
4316,-316,692,-88,-10,-9,2024-01-24 14:38:53,0.0
4273,-332,704,-74,-56,4,2024-01-24 14:38:53,0.0
4303,-332,659,-59,-18,7,2024-01-24 14:38:53,0.0
4278,-336,678,-22,1,13,2024-01-24 14:38:53,0.0
4272,-329,695,-25,11,1,2024-01-24 14:38:53,0.0
4232,-338,754,-36,-53,3,2024-01-24 14:38:53,0.0
4286,-304,679,-41,-71,9,2024-01-24 14:38:53,0.0
4293,-274,607,-37,-9,25,2024-01-24 14:38:53,0.0
4278,-299,729,-39,-8,17,2024-01-24 14:38:53,0.0
4278,-293,727,-38,-31,11,2024-01-24 14:38:53,0.0
4285,-291,720,-48,-31,8,2024-01-24 14:38:53,0.0
4290,-289,664,-64,-25,-2,2024-01-24 14:38:53,0.0
4302,-281,692,-86,-18,0,2024-01-24 14:38:53,0.0
4311,-284,677,-88,-11,-7,2024-01-24 14:38:53,0.0
4271,-301,700,-105,-34,-11,2024-01-24 14:38:53,0.0
4278,-311,688,-104,-24,-14,2024-01-24 14:38:53,0.0
4282,-390,683,-65,-42,-1,2024-01-24 14:38:54,0.0
4259,-355,712,-25,-55,7,2024-01-24 14:38:54,0.0
4322,-310,694,-6,-58,8,2024-01-24 14:38:54,0.0
4281,-308,656,-16,-49,11,2024-01-24 14:38:54,0.0
4312,-272,646,-19,-44,17,2024-01-24 14:38:54,0.0
4289,-329,657,-34,-30,14,2024-01-24 14:38:54,0.0
4288,-291,667,-33,-34,15,2024-01-24 14:38:54,0.0
4274,-315,678,-34,-18,17,2024-01-24 14:38:54,0.0
4280,-282,639,-26,-23,19,2024-01-24 14:38:54,0.0
4320,-266,659,-44,-17,18,2024-01-24 14:38:54,0.0
4262,-324,702,-37,-22,12,2024-01-24 14:38:54,0.0
4302,-302,682,-32,-56,-4,2024-01-24 14:38:54,0.0
4285,-342,724,-33,-79,-25,2024-01-24 14:38:54,0.0
4294,-274,637,-35,-61,-39,2024-01-24 14:38:54,0.0
4308,-193,552,-55,12,-39,2024-01-24 14:38:54,0.0
4257,-242,740,-99,17,-60,2024-01-24 14:38:54,0.0
4295,-57,743,-239,-31,-42,2024-01-24 14:38:54,0.0
4311,-156,633,-400,-123,-33,2024-01-24 14:38:54,0.0
4377,-131,440,-483,89,-57,2024-01-24 14:38:55,0.0
4255,-224,658,-546,211,-49,2024-01-24 14:38:55,
4237,-389,964,-505,53,-74,2024-01-24 14:38:55,0.0
4246,-329,855,-458,-116,-130,2024-01-24 14:38:55,0.0
4274,-226,544,-419,-134,-117,2024-01-24 14:38:55,0.0
4239,-199,516,-447,80,-89,2024-01-24 14:38:55,0.0
4244,-283,627,-397,103,-22,2024-01-24 14:38:55,0.0
4263,-340,967,-287,-70,-15,2024-01-24 14:38:55,0.0
4284,-392,768,-137,-128,-54,2024-01-24 14:38:55,0.0
4275,-314,604,-26,-116,-24,2024-01-24 14:38:55,0.0
4301,-265,559,83,-24,26,2024-01-24 14:38:55,0.0
4274,-356,649,194,-27,72,2024-01-24 14:38:55,0.0
4286,-323,727,336,-74,107,2024-01-24 14:38:55,0.0
4299,-475,629,522,-139,134,2024-01-24 14:38:55,0.0
4294,-327,529,693,-125,135,2024-01-24 14:38:55,0.0
4319,-388,578,815,-133,194,2024-01-24 14:38:55,0.0
4313,-462,502,939,-132,205,2024-01-24 14:38:55,0.0
4281,-386,439,1033,-122,239,2024-01-24 14:38:55,0.0
4370,-262,453,1075,-153,280,2024-01-24 14:38:56,0.0
4313,-399,416,1073,-61,277,2024-01-24 14:38:56,0.0
4370,-360,483,1080,-31,284,2024-01-24 14:38:56,0.0
4304,-335,621,1060,-21,293,2024-01-24 14:38:56,0.0
4257,-311,662,976,-88,258,2024-01-24 14:38:56,0.0
4289,-107,582,782,-140,193,2024-01-24 14:38:56,0.0
4287,-22,505,523,-110,146,2024-01-24 14:38:56,0.0
4373,-52,559,205,-52,81,2024-01-24 14:38:56,0.0
4395,-104,552,-109,-15,-9,2024-01-24 14:38:56,0.0
4308,-114,556,-341,85,-49,2024-01-24 14:38:56,0.0
4359,-133,671,-569,91,-109,2024-01-24 14:38:56,0.0
4331,-171,584,-761,115,-163,2024-01-24 14:38:56,0.0
4331,-299,605,-879,148,-193,2024-01-24 14:38:56,0.0
4250,-210,691,-971,105,-205,2024-01-24 14:38:56,0.0
4291,-234,612,-1059,65,-205,2024-01-24 14:38:56,0.0
4326,-170,694,-1170,83,-216,2024-01-24 14:38:56,0.0
4321,-232,583,-1252,110,-269,2024-01-24 14:38:56,0.0
4155,-279,738,-1257,20,-256,2024-01-24 14:38:57,0.0
4453,-265,682,-1220,27,-249,2024-01-24 14:38:57,0.0
4253,-318,712,-1194,110,-273,2024-01-24 14:38:57,0.0
4366,-269,708,-1119,104,-300,2024-01-24 14:38:57,0.0
4250,-329,795,-966,111,-243,2024-01-24 14:38:57,0.0
4307,-412,722,-790,69,-242,2024-01-24 14:38:57,0.0
4182,-403,875,-556,20,-196,2024-01-24 14:38:57,0.0
4296,-327,814,-311,-36,-204,2024-01-24 14:38:57,0.0
4258,-240,869,-162,-132,-211,2024-01-24 14:38:57,0.0
4290,-216,673,-57,-183,-142,2024-01-24 14:38:57,0.0
4262,-309,621,89,-114,-66,2024-01-24 14:38:57,0.0
4428,-321,650,315,-58,-55,2024-01-24 14:38:57,0.0
4270,-293,649,536,66,-41,2024-01-24 14:38:57,0.0
4249,-287,593,690,16,9,2024-01-24 14:38:57,0.0
4077,-214,637,765,-24,-18,2024-01-24 14:38:57,0.0
4511,-295,616,813,47,57,2024-01-24 14:38:57,0.0
4206,10,603,753,-26,39,2024-01-24 14:38:57,0.0
4403,-81,713,647,76,87,2024-01-24 14:38:57,0.0
4284,-91,634,494,-5,155,2024-01-24 14:38:58,0.0
4258,-49,588,243,-25,138,2024-01-24 14:38:58,0.0
4392,-126,656,132,44,103,2024-01-24 14:38:58,0.0
4307,-182,766,69,36,61,2024-01-24 14:38:58,0.0
4203,-35,786,-24,20,38,2024-01-24 14:38:58,0.0
4295,-28,727,-91,-39,70,2024-01-24 14:38:58,0.0
4285,-96,705,-180,-32,59,2024-01-24 14:38:58,0.0
4200,-99,703,-214,10,101,2024-01-24 14:38:58,0.0
4312,-90,716,-181,-28,110,2024-01-24 14:38:58,0.0
4150,-133,715,-190,45,153,2024-01-24 14:38:58,0.0
4333,-176,810,-119,-1,151,2024-01-24 14:38:58,0.0
4076,-72,939,-70,-42,144,2024-01-24 14:38:58,0.0
4352,-172,928,-80,-194,78,2024-01-24 14:38:58,0.0
4385,-6,569,42,46,23,2024-01-24 14:38:58,0.0
4235,-26,857,-26,-49,21,2024-01-24 14:38:59,0.0
4255,156,613,-146,-44,12,2024-01-24 14:38:59,0.0
4139,29,805,-153,29,148,2024-01-24 14:38:59,0.0
4365,-292,840,-58,100,178,2024-01-24 14:38:59,0.0
4368,-233,1014,35,103,157,2024-01-24 14:38:59,0.0
4241,-440,1074,200,-14,73,2024-01-24 14:38:59,0.0
4291,-303,921,428,-83,67,2024-01-24 14:38:59,0.0
4136,-223,849,550,-138,145,2024-01-24 14:38:59,0.0
4259,66,860,491,-167,124,2024-01-24 14:38:59,0.0
4485,165,813,291,-152,-4,2024-01-24 14:38:59,0.0
4276,284,705,-105,-25,-112,2024-01-24 14:38:59,0.0
4197,7,787,-322,8,-71,2024-01-24 14:38:59,0.0
4264,-216,779,-328,58,-21,2024-01-24 14:38:59,0.0
4302,-415,815,-202,-1,16,2024-01-24 14:38:59,0.0
4296,-264,901,-121,14,-19,2024-01-24 14:38:59,0.0
4213,-112,817,-173,-25,-44,2024-01-24 14:38:59,0.0
4377,43,746,-385,63,-58,2024-01-24 14:38:59,0.0
4140,-61,899,-547,-59,-146,2024-01-24 14:38:59,0.0
4221,-139,758,-671,-92,-186,2024-01-24 14:38:59,0.0
4304,-318,716,-654,-180,-70,2024-01-24 14:38:59,0.0
4462,-865,632,-371,-109,-13,2024-01-24 14:39:00,0.0
4250,-435,803,-13,46,-69,2024-01-24 14:39:00,0.0
4240,-330,854,142,-52,54,2024-01-24 14:39:00,0.0
4207,-281,777,256,-60,104,2024-01-24 14:39:00,0.0
4256,-347,817,188,-29,121,2024-01-24 14:39:00,0.0
4361,-316,747,233,-68,93,2024-01-24 14:39:00,0.0
4205,-274,798,277,-3,111,2024-01-24 14:39:00,0.0
4264,-130,913,236,-21,105,2024-01-24 14:39:00,0.0
4309,-154,852,107,-41,77,2024-01-24 14:39:00,0.0
4302,-350,769,105,-77,62,2024-01-24 14:39:00,0.0
4295,-236,808,160,-49,63,2024-01-24 14:39:00,0.0
4221,-275,651,183,-26,73,2024-01-24 14:39:00,0.0
4266,-224,773,127,-10,68,2024-01-24 14:39:00,0.0
4353,-202,844,-5,13,14,2024-01-24 14:39:00,0.0
4290,-278,777,-10,-43,13,2024-01-24 14:39:00,
4193,-300,787,-14,-37,18,2024-01-24 14:39:00,0.0
4323,-360,725,-16,-45,17,2024-01-24 14:39:00,0.0
4304,-359,749,5,-33,-4,2024-01-24 14:39:00,0.0
4260,-302,787,18,-8,-1,2024-01-24 14:39:01,0.0
4244,-289,782,-12,-59,16,2024-01-24 14:39:01,0.0
4262,-266,769,-59,-48,21,2024-01-24 14:39:01,0.0
4269,-299,692,-51,63,51,2024-01-24 14:39:01,0.0
4252,-352,823,-45,112,38,2024-01-24 14:39:01,0.0
4284,-252,859,-76,120,23,2024-01-24 14:39:01,0.0
4237,-279,953,-130,63,-12,2024-01-24 14:39:01,0.0
4250,-311,854,-77,-44,-17,2024-01-24 14:39:01,0.0
4231,-356,758,-18,32,11,2024-01-24 14:39:01,0.0
4206,-308,1037,13,-21,13,2024-01-24 14:39:01,0.0
4510,-348,857,24,172,-18,2024-01-24 14:39:01,0.0
4119,-148,901,-83,97,5,2024-01-24 14:39:01,0.0
4009,-259,1244,-108,-19,-2,2024-01-24 14:39:01,0.0
4230,-429,1076,-80,-139,19,2024-01-24 14:39:01,0.0
4431,-406,838,88,23,34,2024-01-24 14:39:01,0.0
4225,-58,771,-47,174,-2,2024-01-24 14:39:01,0.0
4024,-149,1288,-168,-27,-19,2024-01-24 14:39:01,0.0
4139,-446,1114,-128,-179,-3,2024-01-24 14:39:02,0.0
4334,-546,760,67,-38,52,2024-01-24 14:39:02,0.0
4235,-193,943,76,100,48,2024-01-24 14:39:02,0.0
4194,-294,1178,30,-34,-6,2024-01-24 14:39:02,0.0
4197,-324,986,51,-137,34,2024-01-24 14:39:02,0.0
4305,-287,860,52,9,69,2024-01-24 14:39:02,0.0
4167,-182,1082,-17,30,16,2024-01-24 14:39:02,0.0
4165,-353,1077,-89,-57,-19,2024-01-24 14:39:02,0.0
4082,-352,1122,-63,-67,-2,2024-01-24 14:39:02,0.0
4338,-357,869,-114,-156,13,2024-01-24 14:39:02,0.0
4182,-441,886,-30,-4,38,2024-01-24 14:39:02,0.0
4363,-330,829,19,11,69,2024-01-24 14:39:02,0.0
4163,-261,1074,-24,91,48,2024-01-24 14:39:02,0.0
4104,-490,1118,-7,-99,13,2024-01-24 14:39:02,0.0
4218,-404,959,61,-159,33,2024-01-24 14:39:02,0.0
4197,-454,952,182,-212,80,2024-01-24 14:39:02,0.0
4354,-241,841,169,-46,104,2024-01-24 14:39:02,0.0
4213,36,1036,-19,-82,83,2024-01-24 14:39:02,0.0
4298,-271,742,27,42,8,2024-01-24 14:39:03,0.0
4286,-264,974,-68,-98,-38,2024-01-24 14:39:03,0.0
4150,-352,906,-15,-102,6,2024-01-24 14:39:03,0.0
4267,-266,853,-10,-178,20,2024-01-24 14:39:03,0.0
4321,-346,777,-92,-114,3,2024-01-24 14:39:03,0.0
4308,-344,857,-122,-74,-27,2024-01-24 14:39:03,0.0
4306,-335,737,-125,-39,-14,2024-01-24 14:39:03,0.0
4206,-372,822,-114,-48,-16,2024-01-24 14:39:03,0.0
4250,-377,787,-84,-9,15,2024-01-24 14:39:03,0.0
4295,-288,839,-91,-25,11,2024-01-24 14:39:03,0.0
4244,-321,869,-111,-22,3,2024-01-24 14:39:03,0.0
4269,-363,832,-88,-107,-2,2024-01-24 14:39:03,0.0
4258,-424,843,-36,-63,13,2024-01-24 14:39:03,0.0
4252,-333,792,-6,-63,8,2024-01-24 14:39:03,0.0
4239,-408,800,52,-105,37,2024-01-24 14:39:03,0.0
4315,-360,765,80,-45,39,2024-01-24 14:39:03,0.0
4268,-388,821,75,-64,36,2024-01-24 14:39:03,0.0
4200,-315,828,48,-115,30,2024-01-24 14:39:04,0.0
4240,-247,733,-19,-112,48,2024-01-24 14:39:04,0.0
4373,-354,699,-40,-73,30,2024-01-24 14:39:04,0.0
4270,-342,711,-55,-12,11,2024-01-24 14:39:04,0.0
4275,-330,710,-65,-31,8,2024-01-24 14:39:04,0.0
4271,-368,683,-88,-25,10,2024-01-24 14:39:04,0.0
4313,-419,695,-94,-20,3,2024-01-24 14:39:04,0.0
4246,-403,732,-85,-5,12,2024-01-24 14:39:04,0.0
4281,-484,628,-44,-47,3,2024-01-24 14:39:04,0.0
4279,-441,775,-60,-56,-10,2024-01-24 14:39:04,0.0
4284,-408,707,0,-40,15,2024-01-24 14:39:04,0.0
4234,-410,703,41,-60,34,2024-01-24 14:39:04,0.0
4250,-417,658,78,-58,34,2024-01-24 14:39:04,0.0
4313,-447,624,104,-95,31,2024-01-24 14:39:04,0.0
4285,-398,554,105,-115,43,2024-01-24 14:39:04,0.0
4305,-375,636,58,-67,46,2024-01-24 14:39:04,0.0
4316,-304,640,-27,-68,32,2024-01-24 14:39:04,0.0
4302,-405,616,-103,-29,22,2024-01-24 14:39:04,0.0
4304,-413,606,-132,-55,7,2024-01-24 14:39:05,0.0
4218,-431,566,-145,-44,7,2024-01-24 14:39:05,0.0
4239,-358,615,-146,-103,14,2024-01-24 14:39:05,0.0
4362,-493,586,-135,-60,34,2024-01-24 14:39:05,0.0
4314,-272,562,-148,-27,-11,2024-01-24 14:39:05,0.0
4376,-349,623,-174,-24,-16,2024-01-24 14:39:05,0.0
4280,-460,554,-152,51,-9,2024-01-24 14:39:05,0.0
4285,-401,684,-118,29,-8,2024-01-24 14:39:05,0.0
4311,-350,712,-135,18,-4,2024-01-24 14:39:05,0.0
4225,-419,672,-121,-25,-1,2024-01-24 14:39:05,0.0
4380,-429,542,-71,-66,17,2024-01-24 14:39:05,0.0
4335,-325,563,-101,226,41,2024-01-24 14:39:05,0.0
4253,-353,743,-133,167,34,2024-01-24 14:39:05,0.0
4238,-489,922,-140,10,-19,2024-01-24 14:39:05,0.0
4307,-409,810,-111,-56,-42,2024-01-24 14:39:05,0.0
4234,-430,735,-110,-101,-45,2024-01-24 14:39:05,0.0
4279,-355,651,-127,-37,-7,2024-01-24 14:39:05,0.0
4271,-380,652,-112,96,30,2024-01-24 14:39:06,0.0
4255,-506,790,-95,55,47,2024-01-24 14:39:06,0.0
4207,-547,930,-16,-146,28,2024-01-24 14:39:06,0.0
4318,-493,827,89,-279,0,2024-01-24 14:39:06,0.0
4349,-328,389,150,67,43,2024-01-24 14:39:06,0.0
4189,-288,564,5,286,88,2024-01-24 14:39:06,0.0
4232,-451,1066,-33,-25,76,2024-01-24 14:39:06,0.0
4330,-604,846,71,-124,20,2024-01-24 14:39:06,0.0
4329,-391,601,135,-2,21,2024-01-24 14:39:06,0.0
4175,-280,699,52,58,-3,2024-01-24 14:39:06,
4196,-376,842,-32,-83,-3,2024-01-24 14:39:06,0.0
4261,-522,771,-22,-64,3,2024-01-24 14:39:06,0.0
4386,-540,776,58,2,-10,2024-01-24 14:39:06,0.0
4239,-404,751,112,59,-1,2024-01-24 14:39:06,0.0
4179,-420,798,117,0,16,2024-01-24 14:39:06,0.0
4235,-402,841,101,-121,29,2024-01-24 14:39:06,0.0
4298,-415,751,100,-79,48,2024-01-24 14:39:06,0.0
4263,-371,765,98,4,40,2024-01-24 14:39:06,0.0
4276,-415,749,64,-45,24,2024-01-24 14:39:07,0.0
4262,-417,775,62,-63,24,2024-01-24 14:39:07,0.0
4288,-343,768,55,-55,29,2024-01-24 14:39:07,0.0
4269,-342,790,-14,-52,21,2024-01-24 14:39:07,0.0
4296,-386,731,-65,-26,12,2024-01-24 14:39:07,0.0
4252,-394,773,-85,-20,4,2024-01-24 14:39:07,0.0
4259,-393,779,-96,-23,-8,2024-01-24 14:39:07,0.0
4287,-396,762,-119,-37,-6,2024-01-24 14:39:07,0.0
4285,-401,749,-151,-38,-11,2024-01-24 14:39:07,0.0
4269,-367,737,-139,14,-9,2024-01-24 14:39:07,0.0
4266,-444,812,-132,-40,-17,2024-01-24 14:39:07,0.0
4240,-460,767,-118,-33,-23,2024-01-24 14:39:07,0.0
4246,-414,757,-87,-26,-5,2024-01-24 14:39:07,0.0
4266,-421,807,-73,-27,7,2024-01-24 14:39:07,0.0
4281,-420,785,-74,-63,-2,2024-01-24 14:39:07,0.0
4301,-369,701,-73,-37,-11,2024-01-24 14:39:07,0.0
4221,-463,851,-72,-40,-18,2024-01-24 14:39:07,0.0
4273,-409,767,-58,-76,-12,2024-01-24 14:39:08,0.0
4235,-362,783,-73,-101,3,2024-01-24 14:39:08,0.0
4291,-399,573,-37,-80,5,2024-01-24 14:39:08,0.0
4321,-396,749,-43,27,16,2024-01-24 14:39:08,0.0
4255,-413,739,-23,-8,19,2024-01-24 14:39:08,0.0
4313,-430,717,0,-77,20,2024-01-24 14:39:08,0.0
4270,-321,711,-5,-36,5,2024-01-24 14:39:08,0.0
4260,-327,716,-42,-28,2,2024-01-24 14:39:08,0.0
4280,-341,685,-78,-10,4,2024-01-24 14:39:08,0.0
4261,-439,704,-87,-2,5,2024-01-24 14:39:08,0.0
4338,-356,680,-82,37,-7,2024-01-24 14:39:08,0.0
4229,-379,798,-75,-15,-7,2024-01-24 14:39:08,0.0
4295,-400,706,-23,-42,30,2024-01-24 14:39:08,0.0
4286,-411,770,-37,-34,13,2024-01-24 14:39:08,0.0
4294,-344,691,-14,-36,17,2024-01-24 14:39:08,0.0
4263,-426,746,-7,-41,18,2024-01-24 14:39:08,0.0
4278,-317,749,3,-35,14,2024-01-24 14:39:08,0.0
4279,-354,736,-22,-41,14,2024-01-24 14:39:08,0.0
4246,-388,756,-41,-19,15,2024-01-24 14:39:09,0.0
4278,-394,745,-46,-13,17,2024-01-24 14:39:09,0.0
4262,-370,773,-52,-24,15,2024-01-24 14:39:09,0.0
4276,-428,729,-46,-25,10,2024-01-24 14:39:09,0.0
4257,-384,804,-53,-44,2,2024-01-24 14:39:09,0.0
4216,-368,860,-59,-41,25,2024-01-24 14:39:09,0.0
4326,-391,756,-33,-36,2,2024-01-24 14:39:09,0.0
4259,-379,703,-39,-39,2,2024-01-24 14:39:09,0.0
4248,-384,725,-59,-32,-14,2024-01-24 14:39:09,0.0
4235,-412,733,-72,-45,12,2024-01-24 14:39:09,0.0
4318,-468,766,-75,-46,-7,2024-01-24 14:39:09,0.0
4218,-428,746,-62,-81,-6,2024-01-24 14:39:09,0.0
4253,-319,669,-103,-88,10,2024-01-24 14:39:09,0.0
4353,-435,684,-116,-4,17,2024-01-24 14:39:09,0.0
4289,-456,737,-74,69,11,2024-01-24 14:39:09,0.0
4239,-359,742,-56,13,23,2024-01-24 14:39:09,0.0
4225,-437,736,-72,-40,9,2024-01-24 14:39:09,0.0
4269,-384,696,-55,-107,-2,2024-01-24 14:39:10,0.0
4281,-394,642,-59,-55,8,2024-01-24 14:39:10,0.0
4281,-344,690,-61,-12,13,2024-01-24 14:39:10,0.0
4259,-444,773,-51,-20,21,2024-01-24 14:39:10,0.0
4307,-402,741,-6,-25,12,2024-01-24 14:39:10,0.0
4262,-381,748,-13,-21,6,2024-01-24 14:39:10,0.0
4266,-359,672,-45,-40,7,2024-01-24 14:39:10,0.0
4286,-405,707,-59,-11,12,2024-01-24 14:39:10,0.0
4286,-397,687,-53,-28,14,2024-01-24 14:39:10,0.0
4293,-378,741,-52,-24,0,2024-01-24 14:39:10,0.0
4276,-397,689,-40,-49,7,2024-01-24 14:39:10,0.0
4275,-380,678,-44,-56,11,2024-01-24 14:39:10,0.0
4284,-401,659,-34,-11,21,2024-01-24 14:39:10,0.0
4299,-403,733,-60,-4,8,2024-01-24 14:39:10,0.0
4228,-437,795,-68,-40,-4,2024-01-24 14:39:10,0.0
4278,-391,724,-85,-70,-13,2024-01-24 14:39:10,0.0
4320,-400,696,-90,-80,-9,2024-01-24 14:39:10,0.0
4254,-367,662,-93,-49,-8,2024-01-24 14:39:10,0.0
4279,-397,713,-124,-49,-4,2024-01-24 14:39:11,0.0
4317,-361,673,-130,-32,-16,2024-01-24 14:39:11,0.0
4310,-380,665,-158,-54,-33,2024-01-24 14:39:11,0.0
4270,-357,680,-148,-55,-18,2024-01-24 14:39:11,0.0
4306,-402,594,-156,-36,-16,2024-01-24 14:39:11,0.0
4282,-424,679,-133,-49,-11,2024-01-24 14:39:11,0.0
4288,-433,586,-102,-32,-10,2024-01-24 14:39:11,0.0
4238,-427,647,-71,-63,-2,2024-01-24 14:39:11,0.0
4321,-374,605,-44,-23,12,2024-01-24 14:39:11,0.0
4268,-360,610,4,-35,22,2024-01-24 14:39:11,0.0
4289,-391,675,-8,-20,24,2024-01-24 14:39:11,0.0
4318,-371,630,3,-42,14,2024-01-24 14:39:11,0.0
4312,-383,602,-25,-32,9,2024-01-24 14:39:11,0.0
4281,-340,632,-39,-19,9,2024-01-24 14:39:11,0.0
4282,-392,642,-52,-10,13,2024-01-24 14:39:11,0.0
4327,-364,689,-58,2,14,2024-01-24 14:39:11,0.0
4248,-386,614,-58,-3,10,2024-01-24 14:39:11,0.0
4289,-380,640,-56,-1,14,2024-01-24 14:39:12,0.0
4309,-404,644,-54,11,17,2024-01-24 14:39:12,0.0
4272,-378,718,-37,13,21,2024-01-24 14:39:12,0.0
4289,-415,707,-28,5,19,2024-01-24 14:39:12,0.0
4287,-422,634,-7,-17,35,2024-01-24 14:39:12,
4267,-456,682,-2,2,29,2024-01-24 14:39:12,0.0
4263,-391,760,30,19,29,2024-01-24 14:39:12,0.0
4269,-428,720,51,-18,37,2024-01-24 14:39:12,0.0
4289,-427,759,80,-31,43,2024-01-24 14:39:12,0.0
4257,-403,743,64,-32,33,2024-01-24 14:39:12,0.0
4277,-368,716,37,-36,29,2024-01-24 14:39:12,0.0
4277,-355,717,-3,-32,21,2024-01-24 14:39:12,0.0
4267,-380,733,-37,-28,15,2024-01-24 14:39:12,0.0
4291,-417,735,-40,-19,10,2024-01-24 14:39:12,0.0
4263,-394,753,-52,-32,8,2024-01-24 14:39:12,0.0
4276,-407,732,-71,-26,-3,2024-01-24 14:39:12,0.0
4270,-389,726,-79,-13,-3,2024-01-24 14:39:12,0.0
4268,-431,697,-81,-17,1,2024-01-24 14:39:12,0.0
4264,-401,701,-72,-23,1,2024-01-24 14:39:13,0.0
4274,-380,719,-89,-20,2,2024-01-24 14:39:13,0.0
4284,-393,765,-93,-10,5,2024-01-24 14:39:13,0.0
4266,-410,751,-102,-22,1,2024-01-24 14:39:13,0.0
4279,-394,741,-102,-26,-1,2024-01-24 14:39:13,0.0
4278,-373,745,-113,-37,-1,2024-01-24 14:39:13,0.0
4280,-425,754,-112,-35,2,2024-01-24 14:39:13,0.0
4285,-380,770,-115,-31,-3,2024-01-24 14:39:13,0.0
4264,-408,732,-124,-38,-11,2024-01-24 14:39:13,0.0
4274,-416,700,-113,-27,-5,2024-01-24 14:39:13,0.0
4291,-427,836,-87,-33,-2,2024-01-24 14:39:13,0.0
4257,-436,750,-78,-69,-7,2024-01-24 14:39:13,0.0
4283,-427,655,-45,-98,-7,2024-01-24 14:39:13,0.0
4303,-441,623,-14,-85,3,2024-01-24 14:39:13,0.0
4303,-395,619,15,-60,9,2024-01-24 14:39:13,0.0
4276,-421,648,40,-77,13,2024-01-24 14:39:13,0.0
4266,-490,717,82,-115,26,2024-01-24 14:39:13,0.0
4287,-349,602,88,-100,24,2024-01-24 14:39:14,0.0
4289,-394,624,106,-89,4,2024-01-24 14:39:14,0.0
4237,-330,669,45,-77,-14,2024-01-24 14:39:14,0.0
4336,-345,576,-21,-37,14,2024-01-24 14:39:14,0.0
4321,-318,652,-64,17,3,2024-01-24 14:39:14,0.0
4325,-306,591,-137,34,3,2024-01-24 14:39:14,0.0
4240,-384,624,-162,22,-15,2024-01-24 14:39:14,0.0
4316,-378,677,-168,14,-11,2024-01-24 14:39:14,0.0
4286,-388,686,-164,-4,-22,2024-01-24 14:39:14,0.0
4261,-409,633,-154,-7,-28,2024-01-24 14:39:14,0.0
4272,-389,670,-131,-15,-33,2024-01-24 14:39:14,0.0
4295,-339,667,-130,2,-10,2024-01-24 14:39:14,0.0
4328,-316,664,-148,10,8,2024-01-24 14:39:14,0.0
4259,-350,640,-118,34,22,2024-01-24 14:39:14,0.0
4283,-437,653,-83,14,23,2024-01-24 14:39:14,0.0
4296,-430,735,-12,-23,13,2024-01-24 14:39:14,0.0
4259,-388,718,5,-53,10,2024-01-24 14:39:14,0.0
4281,-321,661,9,-20,11,2024-01-24 14:39:14,0.0
4213,-375,715,0,-14,28,2024-01-24 14:39:15,0.0
4278,-342,743,20,-24,26,2024-01-24 14:39:15,0.0
4290,-423,687,7,-69,19,2024-01-24 14:39:15,0.0
4289,-404,628,10,-66,10,2024-01-24 14:39:15,0.0
4305,-340,664,-11,-31,14,2024-01-24 14:39:15,0.0
4261,-390,670,-16,6,22,2024-01-24 14:39:15,0.0
4291,-421,699,-27,-1,11,2024-01-24 14:39:15,0.0
4287,-426,755,2,-15,14,2024-01-24 14:39:15,0.0
4324,-345,695,6,-17,22,2024-01-24 14:39:15,0.0
4247,-372,739,20,-32,38,2024-01-24 14:39:15,0.0
4299,-433,758,21,-51,27,2024-01-24 14:39:15,0.0
4303,-422,734,39,-48,25,2024-01-24 14:39:15,0.0
4276,-357,639,56,-9,39,2024-01-24 14:39:15,0.0
4249,-343,765,23,-31,33,2024-01-24 14:39:15,0.0
4303,-396,775,-5,-35,15,2024-01-24 14:39:15,0.0
4264,-373,720,-13,-50,16,2024-01-24 14:39:15,0.0
4314,-300,752,-38,-48,-1,2024-01-24 14:39:15,0.0
4209,-416,698,-71,-133,-4,2024-01-24 14:39:16,0.0
4285,-342,641,-77,-98,-1,2024-01-24 14:39:16,0.0
4282,-382,683,-87,-122,-9,2024-01-24 14:39:16,0.0
4320,-359,630,-104,-17,-28,2024-01-24 14:39:16,0.0
4200,-368,637,-85,-17,-15,2024-01-24 14:39:16,0.0
4313,-405,665,-88,-19,0,2024-01-24 14:39:16,0.0
4297,-379,621,-80,24,-10,2024-01-24 14:39:16,0.0
4312,-389,615,-66,8,1,2024-01-24 14:39:16,0.0
4244,-451,665,-62,-13,-6,2024-01-24 14:39:16,0.0
4305,-427,639,0,-23,14,2024-01-24 14:39:16,0.0
4339,-345,644,-35,42,-1,2024-01-24 14:39:16,0.0
4274,-258,648,-122,89,-26,2024-01-24 14:39:16,0.0
4305,-272,704,-220,83,-42,2024-01-24 14:39:16,0.0
4244,-287,795,-297,82,-65,2024-01-24 14:39:16,0.0
4257,-320,829,-310,3,-59,2024-01-24 14:39:16,0.0
4204,-408,888,-250,-30,-48,2024-01-24 14:39:16,0.0
4293,-379,801,-178,-27,-36,2024-01-24 14:39:16,0.0
4232,-338,828,-106,-37,-7,2024-01-24 14:39:16,0.0
4278,-324,761,-107,-18,-6,2024-01-24 14:39:17,0.0
4247,-354,775,-70,-34,2,2024-01-24 14:39:17,0.0
4267,-293,766,-74,-34,-12,2024-01-24 14:39:17,0.0
4293,-299,771,-103,-32,-28,2024-01-24 14:39:17,0.0
4316,-332,757,-125,-51,-23,2024-01-24 14:39:17,0.0
4267,-328,782,-93,-41,-41,2024-01-24 14:39:17,0.0
4268,-334,717,-41,-66,-74,2024-01-24 14:39:17,0.0
4235,-257,811,-25,-71,-88,2024-01-24 14:39:17,0.0
4248,-212,778,-43,-72,-51,2024-01-24 14:39:17,0.0
4278,-226,749,-68,-51,-28,2024-01-24 14:39:17,0.0
4322,-199,723,-115,17,-48,2024-01-24 14:39:17,0.0
4233,-235,760,-123,-19,-46,2024-01-24 14:39:17,0.0
4259,-241,717,-98,-40,-29,2024-01-24 14:39:17,0.0
4290,-242,738,-68,-62,-17,2024-01-24 14:39:17,0.0
4279,-202,743,-83,-42,-19,2024-01-24 14:39:17,0.0
4317,-149,664,-97,-24,-13,2024-01-24 14:39:17,0.0
4285,-205,723,-93,-27,-22,2024-01-24 14:39:17,
4261,-188,711,-97,-31,-15,2024-01-24 14:39:18,0.0
4299,-146,634,-108,-15,-1,2024-01-24 14:39:18,0.0
4355,-215,779,-92,3,-24,2024-01-24 14:39:18,0.0
4316,-164,749,-98,-5,-67,2024-01-24 14:39:18,0.0
4213,-92,770,-128,-67,-88,2024-01-24 14:39:18,0.0
4212,-10,672,-178,-51,-93,2024-01-24 14:39:18,0.0
4326,-81,641,-239,-37,-58,2024-01-24 14:39:18,0.0
4304,-140,644,-235,11,-50,2024-01-24 14:39:18,0.0
4310,-92,705,-245,3,-44,2024-01-24 14:39:18,0.0
4233,-93,755,-247,-17,-44,2024-01-24 14:39:18,0.0
4287,-188,712,-194,-53,-21,2024-01-24 14:39:18,0.0
4283,-175,735,-129,-10,-11,2024-01-24 14:39:18,0.0
4287,-156,746,-55,-34,3,2024-01-24 14:39:18,0.0
4239,-131,753,-26,-34,15,2024-01-24 14:39:18,0.0
4307,-120,794,0,-15,21,2024-01-24 14:39:18,0.0
4276,-175,753,50,-28,18,2024-01-24 14:39:18,0.0
4285,-143,656,93,-30,33,2024-01-24 14:39:18,0.0
4263,-78,610,107,11,58,2024-01-24 14:39:18,0.0
4307,-9,679,61,10,87,2024-01-24 14:39:19,0.0
4293,-72,704,-31,-12,75,2024-01-24 14:39:19,0.0
4276,-149,723,-33,-35,58,2024-01-24 14:39:19,0.0
4253,-202,687,-23,-30,59,2024-01-24 14:39:19,0.0
4382,-144,669,5,-3,51,2024-01-24 14:39:19,0.0
4226,-151,810,31,23,64,2024-01-24 14:39:19,0.0
4327,-177,823,22,-46,40,2024-01-24 14:39:19,0.0
4323,-223,636,22,-8,25,2024-01-24 14:39:19,0.0
4219,-52,754,-19,-4,56,2024-01-24 14:39:19,0.0
4223,-227,884,-79,-90,50,2024-01-24 14:39:19,0.0
4323,-328,713,-51,-110,23,2024-01-24 14:39:19,0.0
4284,-269,675,31,26,57,2024-01-24 14:39:19,0.0
4263,-278,880,40,-32,67,2024-01-24 14:39:19,0.0
4259,-258,793,55,-45,44,2024-01-24 14:39:19,0.0
4270,-266,730,57,-28,54,2024-01-24 14:39:19,0.0
4272,-223,735,41,-26,58,2024-01-24 14:39:19,0.0
4230,-273,766,26,-28,62,2024-01-24 14:39:19,0.0
4330,-260,735,29,-39,56,2024-01-24 14:39:20,0.0
4298,-300,739,23,-63,40,2024-01-24 14:39:20,0.0
4279,-199,735,25,-42,29,2024-01-24 14:39:20,0.0
4275,-229,756,-19,-23,23,2024-01-24 14:39:20,0.0
4302,-219,749,-64,-13,15,2024-01-24 14:39:20,0.0
4286,-233,799,-71,-30,1,2024-01-24 14:39:20,0.0
4235,-260,777,-73,-54,-9,2024-01-24 14:39:20,0.0
4275,-264,712,-55,-60,1,2024-01-24 14:39:20,0.0
4273,-271,688,-33,-27,18,2024-01-24 14:39:20,0.0
4282,-312,743,4,-30,37,2024-01-24 14:39:20,0.0
4358,-304,726,44,-25,33,2024-01-24 14:39:20,0.0
4290,-276,719,51,-25,15,2024-01-24 14:39:20,0.0
4253,-191,757,26,-51,21,2024-01-24 14:39:20,0.0
4277,-246,669,5,-49,14,2024-01-24 14:39:20,0.0
4311,-220,674,-20,12,29,2024-01-24 14:39:20,0.0
4264,-253,773,-47,3,22,2024-01-24 14:39:20,0.0
4289,-287,760,-54,-51,3,2024-01-24 14:39:20,0.0
4315,-272,688,-42,-56,0,2024-01-24 14:39:21,0.0
4268,-258,687,-45,-23,10,2024-01-24 14:39:21,0.0
4300,-268,789,-41,-38,12,2024-01-24 14:39:21,0.0
4289,-331,717,-30,-19,13,2024-01-24 14:39:21,0.0
4278,-274,762,-18,-13,13,2024-01-24 14:39:21,0.0
4273,-302,782,-17,-39,6,2024-01-24 14:39:21,0.0
4292,-296,707,-6,-31,14,2024-01-24 14:39:21,0.0
4293,-261,691,-25,-4,17,2024-01-24 14:39:21,0.0
4276,-271,755,-45,-16,10,2024-01-24 14:39:21,0.0
4259,-296,779,-42,-27,16,2024-01-24 14:39:21,0.0
4283,-339,770,-16,-48,15,2024-01-24 14:39:21,0.0
4255,-292,752,-14,-40,8,2024-01-24 14:39:21,0.0
4250,-283,749,-18,-39,15,2024-01-24 14:39:21,0.0
4257,-280,744,-38,-36,15,2024-01-24 14:39:21,0.0
4311,-290,737,-45,-37,7,2024-01-24 14:39:21,0.0
4292,-275,733,-56,-42,3,2024-01-24 14:39:21,0.0
4266,-251,721,-61,-42,1,2024-01-24 14:39:21,0.0
4306,-291,750,-76,-29,1,2024-01-24 14:39:21,0.0
4281,-271,744,-79,-33,-1,2024-01-24 14:39:22,0.0
4290,-306,725,-73,-33,1,2024-01-24 14:39:22,0.0
4281,-273,692,-61,-30,0,2024-01-24 14:39:22,0.0
4283,-293,713,-40,-34,8,2024-01-24 14:39:22,0.0
4268,-296,729,-15,-39,11,2024-01-24 14:39:22,0.0
4282,-298,730,-12,-25,17,2024-01-24 14:39:22,0.0
4302,-264,720,-4,-27,17,2024-01-24 14:39:22,0.0
4241,-298,693,-6,-29,18,2024-01-24 14:39:22,0.0
4301,-257,646,-5,-25,28,2024-01-24 14:39:22,0.0
4264,-288,703,-23,-31,28,2024-01-24 14:39:22,0.0
4272,-272,716,-30,-26,19,2024-01-24 14:39:22,0.0
4302,-276,722,-30,-24,21,2024-01-24 14:39:22,0.0
4282,-270,691,-42,-22,14,2024-01-24 14:39:22,0.0
4311,-288,744,-41,-25,13,2024-01-24 14:39:22,0.0
4314,-318,667,-39,-23,10,2024-01-24 14:39:22,0.0
4268,-279,739,-49,-22,7,2024-01-24 14:39:22,0.0
4309,-277,705,-63,-5,12,2024-01-24 14:39:22,0.0
4294,-339,767,-62,-13,3,2024-01-24 14:39:23,0.0
4275,-303,746,-43,-1,20,2024-01-24 14:39:23,0.0
4286,-313,785,-47,10,17,2024-01-24 14:39:23,0.0
4255,-256,780,-58,35,23,2024-01-24 14:39:23,0.0
4249,-313,790,-47,2,23,2024-01-24 14:39:23,0.0
4259,-289,759,-39,-18,21,2024-01-24 14:39:23,0.0
4273,-300,828,-22,-11,26,2024-01-24 14:39:23,0.0
4263,-328,827,-23,-18,19,2024-01-24 14:39:23,0.0
4279,-312,771,-25,-19,12,2024-01-24 14:39:23,0.0
4263,-293,817,-17,-16,17,2024-01-24 14:39:23,0.0
4292,-329,812,-33,-13,6,2024-01-24 14:39:23,0.0
4227,-281,895,-48,-66,-1,2024-01-24 14:39:23,0.0
4286,-323,775,-62,-59,-5,2024-01-24 14:39:23,
4280,-357,734,-34,-25,1,2024-01-24 14:39:23,0.0
4283,-248,813,-52,10,10,2024-01-24 14:39:23,0.0
4240,-308,795,-68,-6,19,2024-01-24 14:39:23,0.0
4278,-321,838,-71,-10,16,2024-01-24 14:39:23,0.0
4265,-332,852,-56,-51,1,2024-01-24 14:39:23,0.0
4285,-310,780,-23,-41,-4,2024-01-24 14:39:24,0.0
4241,-286,691,-28,33,24,2024-01-24 14:39:24,0.0
4246,-246,877,-81,-37,21,2024-01-24 14:39:24,0.0
4313,-377,854,-77,-61,5,2024-01-24 14:39:24,0.0
4272,-322,737,-22,-34,2,2024-01-24 14:39:24,0.0
4267,-284,767,-46,27,8,2024-01-24 14:39:24,0.0
4211,-262,909,-85,-28,22,2024-01-24 14:39:24,0.0
4308,-372,899,-74,-49,12,2024-01-24 14:39:24,0.0
4302,-341,811,-39,-27,2,2024-01-24 14:39:24,0.0
4230,-258,780,-35,9,9,2024-01-24 14:39:24,0.0
4213,-272,906,-61,-47,14,2024-01-24 14:39:24,0.0
4286,-410,844,-48,-86,5,2024-01-24 14:39:24,0.0
4318,-318,764,-10,-55,6,2024-01-24 14:39:24,0.0
4209,-252,773,-27,-13,20,2024-01-24 14:39:24,0.0
4265,-290,847,-55,-65,18,2024-01-24 14:39:24,0.0
4310,-390,745,-30,-86,2,2024-01-24 14:39:24,0.0
4292,-322,687,0,-16,5,2024-01-24 14:39:24,0.0
4233,-247,833,-39,-40,4,2024-01-24 14:39:25,0.0
4213,-351,788,-44,-75,13,2024-01-24 14:39:25,0.0
4348,-355,724,-16,-61,10,2024-01-24 14:39:25,0.0
4255,-267,748,-30,-33,10,2024-01-24 14:39:25,0.0
4275,-320,729,-43,-32,10,2024-01-24 14:39:25,0.0
4252,-328,755,-51,-12,13,2024-01-24 14:39:25,0.0
4265,-282,818,-50,-13,11,2024-01-24 14:39:25,0.0
4260,-316,740,-59,-6,11,2024-01-24 14:39:25,0.0
4294,-333,719,-75,-12,3,2024-01-24 14:39:25,0.0
4297,-326,767,-69,-18,-1,2024-01-24 14:39:25,0.0
4275,-311,761,-52,-8,6,2024-01-24 14:39:25,0.0
4302,-285,761,-70,6,2,2024-01-24 14:39:25,0.0
4252,-322,817,-75,-5,-2,2024-01-24 14:39:25,0.0
4266,-310,803,-58,-21,-1,2024-01-24 14:39:25,0.0
4239,-312,804,-48,-26,8,2024-01-24 14:39:25,0.0
4278,-321,830,-46,-18,10,2024-01-24 14:39:25,0.0
4281,-285,817,-43,-21,8,2024-01-24 14:39:25,0.0
4251,-323,781,-37,-39,4,2024-01-24 14:39:25,0.0
4256,-288,752,-35,-43,5,2024-01-24 14:39:26,0.0
4282,-298,773,-29,-34,13,2024-01-24 14:39:26,0.0
4257,-294,783,-36,-50,14,2024-01-24 14:39:26,0.0
4270,-315,783,-32,-55,12,2024-01-24 14:39:26,0.0
4297,-322,761,-29,-36,1,2024-01-24 14:39:26,0.0
4240,-259,717,-28,39,28,2024-01-24 14:39:26,0.0
4252,-314,899,-86,-17,17,2024-01-24 14:39:26,0.0
4267,-399,872,-52,-68,-9,2024-01-24 14:39:26,0.0
4306,-298,673,7,34,1,2024-01-24 14:39:26,0.0
4158,-197,853,-57,47,25,2024-01-24 14:39:26,0.0
4309,-342,875,-118,-48,-1,2024-01-24 14:39:26,0.0
4352,-402,721,-26,-16,-12,2024-01-24 14:39:26,0.0
4228,-185,856,-8,84,26,2024-01-24 14:39:26,0.0
4235,-290,934,-88,-32,8,2024-01-24 14:39:26,0.0
4301,-401,851,-9,-81,-5,2024-01-24 14:39:26,0.0
4300,-252,710,11,20,20,2024-01-24 14:39:26,0.0
4222,-212,920,-53,-26,22,2024-01-24 14:39:26,0.0
4258,-359,841,-72,-78,6,2024-01-24 14:39:27,0.0
4357,-360,733,-24,6,17,2024-01-24 14:39:27,0.0
4211,-256,883,-35,55,29,2024-01-24 14:39:27,0.0
4209,-309,914,-76,-47,13,2024-01-24 14:39:27,0.0
4296,-405,885,-33,-75,10,2024-01-24 14:39:27,0.0
4285,-276,820,-16,-17,14,2024-01-24 14:39:27,0.0
4207,-245,895,-56,-29,18,2024-01-24 14:39:27,0.0
4265,-345,903,-68,-76,18,2024-01-24 14:39:27,0.0
4273,-399,837,-21,-66,11,2024-01-24 14:39:27,0.0
4228,-263,768,-11,-21,16,2024-01-24 14:39:27,0.0
4239,-321,867,-43,-65,2,2024-01-24 14:39:27,0.0
4287,-372,817,-27,-62,10,2024-01-24 14:39:27,0.0
4307,-326,803,-14,-35,7,2024-01-24 14:39:27,0.0
4242,-294,865,-21,3,17,2024-01-24 14:39:27,0.0
4274,-332,868,-36,-47,13,2024-01-24 14:39:27,0.0
4265,-392,851,-14,-52,16,2024-01-24 14:39:27,0.0
4270,-313,804,-33,-37,15,2024-01-24 14:39:27,0.0
4240,-330,819,-46,-18,12,2024-01-24 14:39:27,0.0
4231,-376,824,-35,-19,20,2024-01-24 14:39:28,0.0
4227,-385,814,-5,-44,31,2024-01-24 14:39:28,0.0
4252,-342,802,42,-55,46,2024-01-24 14:39:28,0.0
4267,-388,790,76,-49,44,2024-01-24 14:39:28,0.0
4280,-339,783,100,-41,45,2024-01-24 14:39:28,0.0
4283,-327,810,114,-37,47,2024-01-24 14:39:28,0.0
4233,-353,834,110,-49,53,2024-01-24 14:39:28,0.0
4265,-269,805,94,-49,44,2024-01-24 14:39:28,0.0
4276,-261,828,51,-38,35,2024-01-24 14:39:28,0.0
4263,-264,810,-18,-42,18,2024-01-24 14:39:28,0.0
4298,-286,774,-75,-29,4,2024-01-24 14:39:28,0.0
4312,-332,793,-101,-5,-6,2024-01-24 14:39:28,0.0
4272,-334,790,-114,-8,1,2024-01-24 14:39:28,0.0
4243,-349,818,-112,-20,3,2024-01-24 14:39:28,0.0
4329,-378,815,-104,1,3,2024-01-24 14:39:28,0.0
4248,-359,852,-87,-3,4,2024-01-24 14:39:28,0.0
4251,-389,827,-66,-1,0,2024-01-24 14:39:28,0.0
4243,-349,834,-37,-18,5,2024-01-24 14:39:29,0.0
4235,-403,830,-37,-20,11,2024-01-24 14:39:29,0.0
4263,-334,865,-34,-16,7,2024-01-24 14:39:29,0.0
4285,-348,844,-33,-17,17,2024-01-24 14:39:29,0.0
4254,-332,855,-44,-22,8,2024-01-24 14:39:29,0.0
4281,-342,857,-62,-26,3,2024-01-24 14:39:29,0.0
4255,-338,805,-62,-20,4,2024-01-24 14:39:29,0.0
4224,-358,862,-68,-27,1,2024-01-24 14:39:29,
4269,-345,829,-73,-30,3,2024-01-24 14:39:29,0.0
4263,-343,884,-76,-38,1,2024-01-24 14:39:29,0.0
4279,-345,845,-71,-47,1,2024-01-24 14:39:29,0.0
4244,-358,828,-55,-45,8,2024-01-24 14:39:29,0.0
4278,-359,800,-42,-66,9,2024-01-24 14:39:29,0.0
4240,-336,829,-43,-60,11,2024-01-24 14:39:29,0.0
4268,-387,778,-32,-62,10,2024-01-24 14:39:29,0.0
4298,-340,781,-27,-51,14,2024-01-24 14:39:29,0.0
4287,-354,811,-42,-23,7,2024-01-24 14:39:29,0.0
4252,-348,797,-39,-47,3,2024-01-24 14:39:30,0.0
4261,-369,806,-49,-35,7,2024-01-24 14:39:30,0.0
4296,-372,829,-40,-22,6,2024-01-24 14:39:30,0.0
4263,-370,826,-42,-31,6,2024-01-24 14:39:30,0.0
4274,-326,778,-33,-20,5,2024-01-24 14:39:30,0.0
4254,-350,822,-33,-29,4,2024-01-24 14:39:30,0.0
4273,-340,802,-12,-23,6,2024-01-24 14:39:30,0.0
4271,-325,850,-1,-64,3,2024-01-24 14:39:30,0.0
4264,-305,777,-27,-58,-2,2024-01-24 14:39:30,0.0
4267,-324,770,-46,-31,7,2024-01-24 14:39:30,0.0
4294,-361,757,-29,15,30,2024-01-24 14:39:30,0.0
4307,-342,759,5,24,5,2024-01-24 14:39:30,0.0
4281,-404,986,8,138,-15,2024-01-24 14:39:30,0.0
4284,-168,780,-80,76,-28,2024-01-24 14:39:30,0.0
4164,-261,1126,-132,-55,-17,2024-01-24 14:39:30,0.0
4315,-352,674,-152,-38,11,2024-01-24 14:39:30,0.0
4213,-467,870,-73,19,0,2024-01-24 14:39:30,0.0
4310,-302,909,-14,-8,3,2024-01-24 14:39:30,0.0
4173,-290,872,14,-86,13,2024-01-24 14:39:31,0.0
4341,-269,853,-32,-16,10,2024-01-24 14:39:31,0.0
4286,-232,863,-93,-8,22,2024-01-24 14:39:31,0.0
4174,-377,989,-62,-9,18,2024-01-24 14:39:31,0.0
4307,-369,813,-19,-29,24,2024-01-24 14:39:31,0.0
4237,-351,821,6,-19,18,2024-01-24 14:39:31,0.0
4198,-255,1047,-17,-43,6,2024-01-24 14:39:31,0.0
4233,-284,808,-74,-31,23,2024-01-24 14:39:31,0.0
4250,-383,826,-71,-7,32,2024-01-24 14:39:31,0.0
4244,-396,928,-46,20,15,2024-01-24 14:39:31,0.0
4276,-348,928,10,-68,1,2024-01-24 14:39:31,0.0
4219,-349,873,13,-90,9,2024-01-24 14:39:31,0.0
4275,-397,855,28,-46,19,2024-01-24 14:39:31,0.0
4228,-320,817,28,-10,21,2024-01-24 14:39:31,0.0
4283,-287,882,2,-26,17,2024-01-24 14:39:31,0.0
4228,-409,923,-1,-73,-5,2024-01-24 14:39:31,0.0
4207,-358,909,-1,-80,-5,2024-01-24 14:39:31,0.0
4242,-381,884,13,-58,12,2024-01-24 14:39:32,0.0
4253,-350,848,31,-19,11,2024-01-24 14:39:32,0.0
4253,-285,843,23,-12,14,2024-01-24 14:39:32,0.0
4233,-309,918,5,-80,9,2024-01-24 14:39:32,0.0
4224,-330,855,-11,-121,-6,2024-01-24 14:39:32,0.0
4267,-280,733,-9,-193,-13,2024-01-24 14:39:32,0.0
4281,-228,727,-49,-100,1,2024-01-24 14:39:32,0.0
4254,-217,732,-93,-75,-5,2024-01-24 14:39:32,0.0
4302,-299,723,-105,-22,-15,2024-01-24 14:39:32,0.0
4296,-266,780,-147,-5,-43,2024-01-24 14:39:32,0.0
4235,-229,765,-144,-43,-38,2024-01-24 14:39:32,0.0
4263,-276,758,-140,-43,-21,2024-01-24 14:39:32,0.0
4269,-336,792,-105,-3,0,2024-01-24 14:39:32,0.0
4283,-315,806,-44,7,19,2024-01-24 14:39:32,0.0
4284,-309,820,2,-21,21,2024-01-24 14:39:32,0.0
4256,-276,760,44,-27,31,2024-01-24 14:39:32,0.0
4307,-283,707,76,-11,54,2024-01-24 14:39:32,0.0
4212,-318,863,167,-87,63,2024-01-24 14:39:32,0.0
4346,-268,653,176,-73,57,2024-01-24 14:39:33,0.0
4282,-223,754,183,-49,50,2024-01-24 14:39:33,0.0
4275,-270,741,187,-63,48,2024-01-24 14:39:33,0.0
4294,-293,685,177,-30,59,2024-01-24 14:39:33,0.0
4288,-348,727,223,-5,66,2024-01-24 14:39:33,0.0
4201,-249,791,242,-33,73,2024-01-24 14:39:33,0.0
4283,-332,819,262,-35,75,2024-01-24 14:39:33,0.0
4216,-243,735,269,-35,85,2024-01-24 14:39:33,0.0
4257,-265,844,232,-25,92,2024-01-24 14:39:33,0.0
4249,-237,830,186,-13,87,2024-01-24 14:39:33,0.0
4265,-255,818,140,-19,69,2024-01-24 14:39:33,0.0
4260,-271,814,106,-40,56,2024-01-24 14:39:33,0.0
4233,-263,799,80,-41,46,2024-01-24 14:39:33,0.0
4264,-254,775,26,-39,43,2024-01-24 14:39:33,0.0
4220,-285,809,-34,-46,37,2024-01-24 14:39:33,0.0
4260,-314,833,-60,-13,35,2024-01-24 14:39:33,0.0
4275,-337,811,-56,-41,7,2024-01-24 14:39:33,0.0
4300,-313,742,-112,-65,-13,2024-01-24 14:39:34,0.0
4245,-263,771,-152,-72,-24,2024-01-24 14:39:34,0.0
4318,-161,545,-201,106,-5,2024-01-24 14:39:34,0.0
4260,-258,857,-260,161,5,2024-01-24 14:39:34,0.0
4236,-329,832,-282,129,-51,2024-01-24 14:39:34,0.0
4292,-109,836,-399,60,-58,2024-01-24 14:39:34,0.0
4235,-253,938,-404,3,-65,2024-01-24 14:39:34,0.0
4292,-253,917,-432,-34,-60,2024-01-24 14:39:34,0.0
4308,-322,850,-417,36,-79,2024-01-24 14:39:34,0.0
4146,-187,993,-403,-29,-70,2024-01-24 14:39:34,0.0
4299,-274,894,-402,-54,-88,2024-01-24 14:39:34,0.0
4361,-321,830,-347,-95,-98,2024-01-24 14:39:34,0.0
4227,-204,890,-306,-29,-92,2024-01-24 14:39:34,0.0
4253,-297,909,-233,-8,-55,2024-01-24 14:39:34,0.0
4200,-376,988,-141,-10,-28,2024-01-24 14:39:34,0.0
4303,-260,963,-99,-66,-40,2024-01-24 14:39:34,0.0
4283,-344,948,-52,-85,-82,2024-01-24 14:39:36,0.0
4202,-341,791,71,-133,-75,2024-01-24 14:39:36,0.0
4271,-286,773,131,-169,-65,2024-01-24 14:39:36,0.0
4232,-279,703,169,-148,-35,2024-01-24 14:39:36,0.0
4355,-275,707,195,-95,-29,2024-01-24 14:39:36,
4361,-357,661,217,-55,-31,2024-01-24 14:39:36,0.0
4137,-358,689,287,-84,13,2024-01-24 14:39:36,0.0
4272,-221,615,272,-93,18,2024-01-24 14:39:36,0.0
4360,-234,578,233,84,41,2024-01-24 14:39:36,0.0
3889,-289,1059,-169,-163,162,2024-01-24 14:39:36,0.0
4856,-524,1052,87,-6,120,2024-01-24 14:39:36,0.0
4191,-372,1034,258,61,-29,2024-01-24 14:39:36,0.0
4276,-46,891,339,-65,9,2024-01-24 14:39:36,0.0
3994,-268,893,229,-38,31,2024-01-24 14:39:36,0.0
4158,-281,867,215,-86,103,2024-01-24 14:39:36,0.0
4368,-207,913,213,1,131,2024-01-24 14:39:36,0.0
4420,-318,987,181,5,28,2024-01-24 14:39:36,0.0
4206,-281,927,146,-67,-14,2024-01-24 14:39:36,0.0
4148,-290,901,104,-131,-21,2024-01-24 14:39:36,0.0
4227,-140,821,13,-105,-9,2024-01-24 14:39:36,0.0
4338,-169,792,-86,-25,-20,2024-01-24 14:39:37,0.0
4363,-257,792,-135,69,-24,2024-01-24 14:39:37,0.0
4219,-321,958,-132,46,-44,2024-01-24 14:39:37,0.0
4180,-323,923,-108,-53,-41,2024-01-24 14:39:37,0.0
4249,-233,822,-113,-38,-36,2024-01-24 14:39:37,0.0
4276,-237,883,-153,-14,-26,2024-01-24 14:39:37,0.0
4303,-359,857,-142,-1,-27,2024-01-24 14:39:37,0.0
4222,-348,877,-67,-5,-15,2024-01-24 14:39:37,0.0
4281,-273,929,-37,-4,-11,2024-01-24 14:39:37,0.0
4183,-243,901,-80,-31,-2,2024-01-24 14:39:37,0.0
4275,-285,967,-115,-60,5,2024-01-24 14:39:37,0.0
4266,-332,887,-125,37,-21,2024-01-24 14:39:37,0.0
4238,-320,926,-115,50,-25,2024-01-24 14:39:37,0.0
4174,-258,1000,-112,-44,-21,2024-01-24 14:39:37,0.0
4209,-336,940,-115,-96,-10,2024-01-24 14:39:37,0.0
4270,-353,898,-70,-37,11,2024-01-24 14:39:37,0.0
4268,-299,918,-37,-2,6,2024-01-24 14:39:37,0.0
4176,-304,916,-28,-46,-2,2024-01-24 14:39:37,0.0
4229,-269,860,-16,-81,21,2024-01-24 14:39:38,0.0
4301,-212,852,-49,-131,25,2024-01-24 14:39:38,0.0
4285,-310,779,-23,-119,-10,2024-01-24 14:39:38,0.0
4304,-281,819,31,-76,-21,2024-01-24 14:39:38,0.0
4218,-189,833,-15,-81,4,2024-01-24 14:39:38,0.0
4274,-207,738,-94,-67,-2,2024-01-24 14:39:38,0.0
4262,-294,740,-89,15,21,2024-01-24 14:39:38,0.0
4275,-344,854,-70,15,32,2024-01-24 14:39:38,0.0
4244,-318,865,-34,0,21,2024-01-24 14:39:38,0.0
4255,-219,849,-15,-31,26,2024-01-24 14:39:38,0.0
4250,-274,809,-76,7,16,2024-01-24 14:39:38,0.0
4259,-372,895,-43,1,18,2024-01-24 14:39:38,0.0
4235,-334,867,4,-15,29,2024-01-24 14:39:38,0.0
4246,-369,875,14,-53,24,2024-01-24 14:39:38,0.0
4263,-279,785,-14,-11,25,2024-01-24 14:39:38,0.0
4262,-292,879,-10,-3,21,2024-01-24 14:39:38,0.0
4224,-323,941,11,1,17,2024-01-24 14:39:38,0.0
4238,-294,910,14,-49,11,2024-01-24 14:39:39,0.0
4266,-269,879,-5,-59,12,2024-01-24 14:39:39,0.0
4261,-294,851,-32,-32,2,2024-01-24 14:39:39,0.0
4251,-300,882,-56,-25,2,2024-01-24 14:39:39,0.0
4234,-267,849,-68,-23,4,2024-01-24 14:39:39,0.0
4263,-324,822,-52,-28,-2,2024-01-24 14:39:39,0.0
4243,-253,834,-49,-2,4,2024-01-24 14:39:39,0.0
4266,-259,901,-53,-18,18,2024-01-24 14:39:39,0.0
4265,-335,855,-26,9,11,2024-01-24 14:39:39,0.0
4213,-282,948,11,-57,13,2024-01-24 14:39:39,0.0
4253,-267,817,-2,-43,16,2024-01-24 14:39:39,0.0
4271,-261,893,-7,-42,15,2024-01-24 14:39:39,0.0
4231,-237,875,-18,-12,15,2024-01-24 14:39:39,0.0
4232,-264,878,-25,-36,3,2024-01-24 14:39:39,0.0
4238,-277,873,-26,-39,14,2024-01-24 14:39:39,0.0
4282,-274,837,-7,-26,20,2024-01-24 14:39:39,0.0
4263,-263,839,-16,-32,21,2024-01-24 14:39:39,0.0
4243,-304,860,-6,-30,27,2024-01-24 14:39:39,0.0
4246,-257,817,14,-12,27,2024-01-24 14:39:40,0.0
4172,-262,909,-32,7,24,2024-01-24 14:39:40,0.0
4296,-318,872,-38,19,17,2024-01-24 14:39:40,0.0
4227,-359,927,-43,-20,-5,2024-01-24 14:39:40,0.0
4229,-303,905,-14,-30,12,2024-01-24 14:39:40,0.0
4249,-278,895,-33,-40,20,2024-01-24 14:39:40,0.0
4268,-288,914,-31,-27,35,2024-01-24 14:39:40,0.0
4272,-290,917,-55,-13,6,2024-01-24 14:39:40,0.0
4236,-268,935,-52,-15,20,2024-01-24 14:39:40,0.0
4224,-318,887,-41,-25,-2,2024-01-24 14:39:40,0.0
4269,-311,916,-18,27,3,2024-01-24 14:39:40,0.0
4200,-283,998,10,-23,13,2024-01-24 14:39:40,0.0
4240,-294,906,-14,-42,7,2024-01-24 14:39:40,0.0
4268,-265,948,-29,-34,17,2024-01-24 14:39:40,0.0
4264,-225,853,-43,29,26,2024-01-24 14:39:40,0.0
4183,-322,982,-24,11,20,2024-01-24 14:39:40,0.0
4271,-288,978,-36,-10,13,2024-01-24 14:39:40,0.0
4177,-264,987,-11,-18,12,2024-01-24 14:39:41,0.0
4243,-300,960,-14,-36,5,2024-01-24 14:39:41,0.0
4233,-319,940,-9,-55,9,2024-01-24 14:39:41,0.0
4252,-287,913,-24,-20,10,2024-01-24 14:39:41,0.0
4204,-254,935,-50,-40,6,2024-01-24 14:39:41,0.0
4233,-313,943,-60,-29,8,2024-01-24 14:39:41,0.0
4250,-264,983,-60,-61,3,2024-01-24 14:39:41,0.0
4233,-313,930,-55,-111,0,2024-01-24 14:39:41,0.0
4260,-323,915,-60,-129,10,2024-01-24 14:39:41,0.0
4224,-285,881,-72,-137,18,2024-01-24 14:39:41,0.0
4320,-348,800,-43,-86,4,2024-01-24 14:39:41,0.0
4198,-255,826,-58,-37,18,2024-01-24 14:39:41,0.0
4299,-372,815,-39,-49,13,2024-01-24 14:39:41,0.0
4218,-312,853,-25,-58,6,2024-01-24 14:39:41,0.0
4265,-287,808,-11,-53,10,2024-01-24 14:39:41,
4254,-302,842,-2,-57,10,2024-01-24 14:39:41,0.0
4257,-288,820,-10,-40,21,2024-01-24 14:39:41,0.0
4294,-266,822,-21,-42,16,2024-01-24 14:39:42,0.0
4265,-292,858,-24,-65,-4,2024-01-24 14:39:42,0.0
4267,-300,845,-46,-45,-4,2024-01-24 14:39:42,0.0
4277,-210,780,-84,-32,-10,2024-01-24 14:39:42,0.0
4313,-247,820,-131,-9,-2,2024-01-24 14:39:42,0.0
4225,-261,844,-164,18,-16,2024-01-24 14:39:42,0.0
4278,-329,853,-150,1,-13,2024-01-24 14:39:42,0.0
4263,-324,821,-120,-12,-8,2024-01-24 14:39:42,0.0
4259,-356,802,-94,-26,-6,2024-01-24 14:39:42,0.0
4239,-286,845,-72,-28,-8,2024-01-24 14:39:42,0.0
4256,-321,825,-65,-42,-4,2024-01-24 14:39:42,0.0
4239,-280,791,-34,-37,4,2024-01-24 14:39:42,0.0
4285,-229,806,-73,-42,14,2024-01-24 14:39:42,0.0
4266,-283,885,-86,-37,13,2024-01-24 14:39:42,0.0
4277,-286,791,-97,-36,9,2024-01-24 14:39:42,0.0
4287,-286,789,-77,-15,6,2024-01-24 14:39:42,0.0
4253,-270,805,-69,-30,4,2024-01-24 14:39:42,0.0
4291,-288,795,-49,-49,9,2024-01-24 14:39:42,0.0
4258,-290,794,-29,-53,0,2024-01-24 14:39:43,0.0
4243,-299,827,-13,-43,3,2024-01-24 14:39:43,0.0
4265,-295,803,-8,-42,9,2024-01-24 14:39:43,0.0
4268,-288,835,-19,-39,8,2024-01-24 14:39:43,0.0
4263,-302,831,3,-40,11,2024-01-24 14:39:43,0.0
4271,-293,741,-3,-35,7,2024-01-24 14:39:43,0.0
4289,-259,769,-7,-50,1,2024-01-24 14:39:43,0.0
4254,-300,776,-19,-29,11,2024-01-24 14:39:43,0.0
4276,-284,765,-15,-24,15,2024-01-24 14:39:43,0.0
4240,-247,768,-31,-6,20,2024-01-24 14:39:43,0.0
4293,-220,838,-65,-8,14,2024-01-24 14:39:43,0.0
4265,-234,839,-98,-7,10,2024-01-24 14:39:43,0.0
4260,-318,819,-87,-22,6,2024-01-24 14:39:43,0.0
4266,-378,880,-35,-41,4,2024-01-24 14:39:43,0.0
4258,-360,848,26,-76,-2,2024-01-24 14:39:43,0.0
4265,-311,791,51,-48,2,2024-01-24 14:39:43,0.0
4253,-301,781,70,-31,14,2024-01-24 14:39:43,0.0
4267,-296,798,93,-17,13,2024-01-24 14:39:43,0.0
4311,-197,793,55,-17,5,2024-01-24 14:39:44,0.0
4242,-61,817,-34,-2,33,2024-01-24 14:39:44,0.0
4344,-149,806,-163,31,20,2024-01-24 14:39:44,0.0
4250,-277,890,-159,7,-8,2024-01-24 14:39:44,0.0
4250,-410,844,-72,-35,-23,2024-01-24 14:39:44,0.0
4259,-282,839,-3,-52,-20,2024-01-24 14:39:44,0.0
4283,-209,844,-9,-45,6,2024-01-24 14:39:44,0.0
4246,-227,763,-46,3,26,2024-01-24 14:39:44,0.0
4297,-242,843,-57,-8,24,2024-01-24 14:39:44,0.0
4244,-245,829,-59,4,17,2024-01-24 14:39:44,0.0
4268,-255,875,-58,-32,3,2024-01-24 14:39:44,0.0
4259,-274,808,-69,-32,0,2024-01-24 14:39:44,0.0
4301,-241,838,-63,-16,-1,2024-01-24 14:39:44,0.0
4236,-282,852,-46,-8,8,2024-01-24 14:39:44,0.0
4290,-244,823,-69,-30,5,2024-01-24 14:39:44,0.0
4221,-269,939,-39,-65,7,2024-01-24 14:39:44,0.0
4271,-254,819,-47,-33,3,2024-01-24 14:39:44,0.0
4274,-271,843,-9,-36,9,2024-01-24 14:39:45,0.0
4225,-263,833,-26,-39,6,2024-01-24 14:39:45,0.0
4238,-243,847,-29,-70,19,2024-01-24 14:39:45,0.0
4274,-279,800,-38,-43,23,2024-01-24 14:39:45,0.0
4269,-305,810,-25,-26,13,2024-01-24 14:39:45,0.0
4273,-236,805,-17,-38,-1,2024-01-24 14:39:45,0.0
4239,-177,773,-38,-26,-2,2024-01-24 14:39:45,0.0
4259,-228,780,-65,-19,6,2024-01-24 14:39:45,0.0
4248,-294,844,-87,-10,17,2024-01-24 14:39:45,0.0
4277,-330,814,-64,-3,19,2024-01-24 14:39:45,0.0
4257,-269,865,-41,-14,14,2024-01-24 14:39:45,0.0
4288,-250,900,-50,-23,1,2024-01-24 14:39:45,0.0
4264,-212,849,-76,-28,4,2024-01-24 14:39:45,0.0
4298,-237,781,-106,21,10,2024-01-24 14:39:45,0.0
4228,-223,852,-118,17,20,2024-01-24 14:39:45,0.0
4209,-203,826,-177,21,35,2024-01-24 14:39:45,0.0
4312,-202,819,-260,73,47,2024-01-24 14:39:45,0.0
4332,-329,922,-201,71,-10,2024-01-24 14:39:46,0.0
4208,-430,1088,-123,-46,-68,2024-01-24 14:39:46,0.0
4307,-294,933,-51,-74,-94,2024-01-24 14:39:46,0.0
4191,-207,939,-40,-80,-89,2024-01-24 14:39:46,0.0
4223,-147,823,-118,-16,-68,2024-01-24 14:39:46,0.0
4202,-178,806,-210,44,-31,2024-01-24 14:39:46,0.0
4256,-265,904,-261,68,-4,2024-01-24 14:39:46,0.0
4269,-277,905,-244,90,5,2024-01-24 14:39:46,0.0
4247,-295,1060,-181,31,0,2024-01-24 14:39:46,0.0
4274,-351,1028,-109,-46,-28,2024-01-24 14:39:46,0.0
4261,-287,1001,-48,-124,-35,2024-01-24 14:39:46,0.0
4226,-269,909,1,-107,-13,2024-01-24 14:39:46,0.0
4268,-210,853,13,-29,21,2024-01-24 14:39:46,0.0
4237,-269,903,17,38,58,2024-01-24 14:39:46,0.0
4230,-316,941,43,46,78,2024-01-24 14:39:46,0.0
4167,-333,1046,127,-42,96,2024-01-24 14:39:46,0.0
4332,-308,980,186,-84,50,2024-01-24 14:39:46,0.0
4202,-256,919,212,-103,39,2024-01-24 14:39:46,0.0
4218,11,906,105,-57,31,2024-01-24 14:39:47,0.0
4213,-149,972,-38,-33,28,2024-01-24 14:39:47,0.0
4232,-194,1029,-125,-44,25,2024-01-24 14:39:47,0.0
4291,-313,1010,-140,7,-12,2024-01-24 14:39:47,0.0
4243,-239,903,-155,-1,-17,2024-01-24 14:39:47,0.0
4225,-353,841,-102,20,12,2024-01-24 14:39:47,0.0
4223,-375,824,-43,59,56,2024-01-24 14:39:47,0.0
4271,-373,997,57,35,76,2024-01-24 14:39:47,0.0
4225,-323,1062,100,-68,12,2024-01-24 14:39:47,0.0
4318,-206,975,88,-91,-53,2024-01-24 14:39:47,
