acceleration_x,acceleration_y,acceleration_z,gyroscope_x,gyroscope_y,gyroscope_z,timestamp,label
3931,-652,-1024,233,459,607,2024-01-24 14:27:58,0.0
4956,1394,-69,-520,341,-249,2024-01-24 14:27:58,0.0
4254,-1459,-26,-660,497,-184,2024-01-24 14:27:58,0.0
2845,-1107,555,42,27,-528,2024-01-24 14:27:58,0.0
3285,-87,753,345,-145,-432,2024-01-24 14:27:58,0.0
3055,1025,1041,69,-332,-321,2024-01-24 14:27:58,0.0
4166,347,1033,-159,-102,81,2024-01-24 14:27:58,0.0
4495,-581,558,-277,-442,-34,2024-01-24 14:27:58,0.0
5747,-666,1702,162,333,14,2024-01-24 14:27:58,0.0
7424,615,-902,39,-401,-516,2024-01-24 14:27:58,0.0
3296,-368,-599,43,569,52,2024-01-24 14:27:58,0.0
4812,-1146,41,590,-481,97,2024-01-24 14:27:58,0.0
4237,1287,99,256,576,37,2024-01-24 14:27:59,0.0
2892,146,252,-375,-303,356,2024-01-24 14:27:59,0.0
3575,-782,722,-324,-299,103,2024-01-24 14:27:59,0.0
3012,-527,737,-182,-342,368,2024-01-24 14:27:59,0.0
4003,-475,669,-243,239,-49,2024-01-24 14:27:59,0.0
5175,-964,847,155,-96,-18,2024-01-24 14:27:59,0.0
6508,-134,895,38,345,458,2024-01-24 14:27:59,0.0
4803,-305,-650,-51,78,864,2024-01-24 14:27:59,0.0
5062,511,-511,-483,162,-116,2024-01-24 14:27:59,0.0
5139,-588,-83,-1089,380,-189,2024-01-24 14:27:59,0.0
2597,-1708,377,-510,214,-494,2024-01-24 14:27:59,0.0
3011,-555,498,208,-200,-674,2024-01-24 14:27:59,0.0
3686,1338,961,27,-107,-328,2024-01-24 14:27:59,0.0
2901,-226,1106,-55,-476,-75,2024-01-24 14:27:59,0.0
4764,-491,711,-40,-1,16,2024-01-24 14:27:59,0.0
5127,371,1936,-134,337,-159,2024-01-24 14:27:59,0.0
5982,-778,-258,-97,-981,-105,2024-01-24 14:27:59,0.0
4709,740,-1711,99,692,-273,2024-01-24 14:27:59,0.0
4507,-1479,212,694,-62,211,2024-01-24 14:28:00,0.0
5160,893,-264,463,178,84,2024-01-24 14:28:00,0.0
2616,592,398,-12,-115,494,2024-01-24 14:28:00,0.0
2899,-796,909,-166,-322,370,2024-01-24 14:28:00,0.0
3082,-868,1120,-26,-460,217,2024-01-24 14:28:00,0.0
4376,-50,464,-168,-402,-87,2024-01-24 14:28:00,0.0
4431,-1371,682,102,-101,-35,2024-01-24 14:28:00,0.0
6306,-307,1549,258,175,557,2024-01-24 14:28:00,0.0
6057,-577,-938,-92,-273,892,2024-01-24 14:28:00,0.0
4407,-234,-1010,130,132,82,2024-01-24 14:28:00,0.0
4757,770,-332,-606,80,-150,2024-01-24 14:28:00,0.0
3271,-931,104,-732,352,-420,2024-01-24 14:28:00,0.0
3029,-486,533,-270,-82,-544,2024-01-24 14:28:00,0.0
3367,310,886,-50,-20,-326,2024-01-24 14:28:00,0.0
2711,-11,983,-107,-389,-242,2024-01-24 14:28:00,0.0
4780,9,548,16,0,121,2024-01-24 14:28:00,0.0
4790,547,1154,-207,138,-49,2024-01-24 14:28:00,0.0
4906,-1043,1871,145,113,-144,2024-01-24 14:28:01,0.0
6764,849,-1281,-89,-376,-391,2024-01-24 14:28:01,0.0
4418,-845,-1143,202,287,-71,2024-01-24 14:28:01,0.0
4551,-744,-38,560,-23,-11,2024-01-24 14:28:01,0.0
3935,1088,57,265,264,297,2024-01-24 14:28:01,0.0
2933,152,446,-268,-108,440,2024-01-24 14:28:01,0.0
3047,-664,1031,-183,-254,263,2024-01-24 14:28:01,0.0
3086,-414,928,-268,-531,206,2024-01-24 14:28:01,0.0
4379,-514,616,-318,210,-255,2024-01-24 14:28:01,0.0
5495,-1821,1171,504,-134,257,2024-01-24 14:28:01,0.0
5721,895,971,307,703,387,2024-01-24 14:28:01,0.0
5107,-891,-1054,-178,-285,947,2024-01-24 14:28:01,0.0
5960,217,-951,-310,554,-193,2024-01-24 14:28:01,0.0
4621,-408,21,-932,491,-178,2024-01-24 14:28:01,0.0
2945,-1485,500,-393,174,-430,2024-01-24 14:28:01,0.0
3181,-462,513,341,4,-539,2024-01-24 14:28:01,0.0
2889,1039,1042,68,-97,-381,2024-01-24 14:28:01,0.0
2942,170,1381,-99,-411,-32,2024-01-24 14:28:01,0.0
4269,-658,845,156,48,152,2024-01-24 14:28:02,0.0
5261,719,1745,-257,-82,-317,2024-01-24 14:28:02,0.0
5978,164,176,-314,-488,-390,2024-01-24 14:28:02,0.0
5659,215,-1483,-249,734,-338,2024-01-24 14:28:02,0.0
4051,-1748,-193,954,-457,206,2024-01-24 14:28:02,0.0
5374,986,-241,858,122,91,2024-01-24 14:28:02,0.0
2789,1065,272,-7,-237,465,2024-01-24 14:28:02,0.0
2869,-461,558,-407,-493,398,2024-01-24 14:28:02,0.0
3197,-697,792,-293,-352,269,2024-01-24 14:28:02,0.0
4213,-313,440,-453,-211,38,2024-01-24 14:28:02,0.0
3675,-773,875,-262,30,-126,2024-01-24 14:28:02,0.0
6148,-567,1507,104,-205,565,2024-01-24 14:28:02,0.0
6050,-1917,-1092,164,-257,25,2024-01-24 14:28:02,0.0
4839,-556,-1395,331,290,707,2024-01-24 14:28:02,0.0
5615,941,-511,-180,437,-117,2024-01-24 14:28:02,0.0
4709,-540,-85,-955,630,-300,2024-01-24 14:28:02,0.0
2715,-1346,188,-251,-5,-341,2024-01-24 14:28:03,0.0
3005,-423,621,376,31,-355,2024-01-24 14:28:03,0.0
3138,1119,876,34,-279,-241,2024-01-24 14:28:03,0.0
3804,10,1036,-59,-58,-13,2024-01-24 14:28:03,0.0
4743,-1115,897,85,-129,72,2024-01-24 14:28:03,0.0
5364,71,1590,40,155,-138,2024-01-24 14:28:04,0.0
8330,716,-1123,-376,-709,-654,2024-01-24 14:28:04,0.0
3228,-929,-252,-41,1188,-63,2024-01-24 14:28:04,0.0
4382,-1252,265,1059,-791,331,2024-01-24 14:28:04,0.0
5774,1925,-407,399,556,-71,2024-01-24 14:28:04,0.0
1997,161,305,-479,35,553,2024-01-24 14:28:04,0.0
2574,-950,708,-402,-658,345,2024-01-24 14:28:06,0.0
3495,-552,915,-243,-108,161,2024-01-24 14:28:06,0.0
4081,-486,653,-247,272,37,2024-01-24 14:28:10,0.0
3897,-98,963,62,-333,99,2024-01-24 14:28:10,0.0
4844,22,878,-13,17,149,2024-01-24 14:28:10,0.0
5320,-360,2020,-239,237,-376,2024-01-24 14:28:10,0.0
6023,-187,-278,-51,-1064,-83,2024-01-24 14:28:10,0.0
5257,377,-1655,397,437,-62,2024-01-24 14:28:10,
5110,-1365,-320,867,-277,-29,2024-01-24 14:28:10,0.0
4853,-465,-1435,-70,270,574,2024-01-24 14:28:10,0.0
5621,588,-513,-531,697,-289,2024-01-24 14:28:10,0.0
3793,-281,620,409,204,-591,2024-01-24 14:28:10,0.0
2679,610,1125,376,-252,-197,2024-01-24 14:28:10,0.0
4111,199,1472,58,-196,-16,2024-01-24 14:28:10,0.0
4463,-151,903,-250,-4,-8,2024-01-24 14:28:11,0.0
4972,-371,1596,-125,82,10,2024-01-24 14:28:12,0.0
6139,683,639,-437,-733,-310,2024-01-24 14:28:12,0.0
4403,127,-477,-317,48,-61,2024-01-24 14:28:12,0.0
4940,-990,-929,296,-424,77,2024-01-24 14:28:12,0.0
4305,1093,372,88,401,250,2024-01-24 14:28:12,0.0
3108,51,247,-445,-446,464,2024-01-24 14:28:12,0.0
3569,-698,283,-469,-327,282,2024-01-24 14:28:12,0.0
3023,-636,879,-374,-304,301,2024-01-24 14:28:12,0.0
3705,-806,1095,-361,-242,135,2024-01-24 14:28:12,0.0
4031,-1498,1025,-41,40,-95,2024-01-24 14:28:12,0.0
3405,-305,679,-78,-155,46,2024-01-24 14:28:12,0.0
5276,-482,711,-24,-100,-138,2024-01-24 14:28:12,0.0
4803,0,2166,-13,34,784,2024-01-24 14:28:12,0.0
5421,-1325,-1786,-65,-232,312,2024-01-24 14:28:12,0.0
4987,720,-805,-345,412,450,2024-01-24 14:28:12,0.0
5521,971,-16,-1302,1075,-286,2024-01-24 14:28:12,0.0
4236,-1496,-2,-1140,898,-445,2024-01-24 14:28:12,0.0
2154,-1162,940,-353,151,-673,2024-01-24 14:28:13,0.0
2560,865,1112,-358,-278,-860,2024-01-24 14:28:13,0.0
2972,648,748,-673,-543,-451,2024-01-24 14:28:13,0.0
4395,-783,919,-378,-92,118,2024-01-24 14:28:13,0.0
5782,-218,1675,-356,-169,-181,2024-01-24 14:28:13,0.0
5095,-805,2198,-13,100,-233,2024-01-24 14:28:13,0.0
5711,784,-1236,230,-1202,-289,2024-01-24 14:28:13,0.0
4334,-320,162,498,591,59,2024-01-24 14:28:13,0.0
5440,-469,-56,656,191,194,2024-01-24 14:28:13,0.0
3310,656,372,378,161,375,2024-01-24 14:28:13,0.0
2477,146,427,-12,-111,467,2024-01-24 14:28:13,0.0
3119,-885,1332,-116,-377,102,2024-01-24 14:28:13,0.0
3513,-636,947,20,-321,9,2024-01-24 14:28:13,0.0
4365,27,385,316,-273,1,2024-01-24 14:28:13,0.0
5196,-294,2184,485,78,672,2024-01-24 14:28:13,0.0
6103,-1104,-993,474,-48,423,2024-01-24 14:28:13,0.0
4484,-147,-910,257,129,789,2024-01-24 14:28:13,0.0
6040,557,-392,-471,398,-343,2024-01-24 14:28:13,0.0
4251,-1208,259,-551,914,-440,2024-01-24 14:28:14,0.0
2267,-820,704,-37,9,-625,2024-01-24 14:28:14,0.0
3117,-14,807,386,-135,-432,2024-01-24 14:28:14,0.0
2377,1029,1154,162,-398,-219,2024-01-24 14:28:14,0.0
4388,153,1318,-101,-4,59,2024-01-24 14:28:14,0.0
5941,-409,1400,-248,-184,35,2024-01-24 14:28:14,0.0
5545,-74,1752,-101,-309,-135,2024-01-24 14:28:14,0.0
5867,276,-1852,-254,-206,-491,2024-01-24 14:28:14,0.0
4507,-2142,-283,945,81,80,2024-01-24 14:28:14,0.0
5402,1105,-190,1054,950,175,2024-01-24 14:28:14,0.0
1813,1155,805,12,98,741,2024-01-24 14:28:14,0.0
1818,-1,440,-756,-898,540,2024-01-24 14:28:14,0.0
3562,-1387,1373,-506,-200,-66,2024-01-24 14:28:14,0.0
4514,-747,287,-195,-352,88,2024-01-24 14:28:14,0.0
4766,-1021,1237,161,172,-25,2024-01-24 14:28:14,0.0
6030,269,1494,155,201,541,2024-01-24 14:28:14,0.0
4120,-449,-786,-345,-112,453,2024-01-24 14:28:14,0.0
7170,464,-1192,-576,928,207,2024-01-24 14:28:15,0.0
3679,-626,678,-1008,556,-323,2024-01-24 14:28:15,0.0
3329,-1538,366,-499,5,-491,2024-01-24 14:28:15,0.0
2688,-820,500,353,-134,-448,2024-01-24 14:28:15,0.0
2677,1491,842,216,-115,-520,2024-01-24 14:28:15,0.0
3080,171,1228,-309,-359,60,2024-01-24 14:28:15,0.0
4935,-956,317,-170,-122,261,2024-01-24 14:28:15,0.0
5835,280,2090,-288,243,-245,2024-01-24 14:28:15,0.0
5576,-901,1100,-13,-54,-77,2024-01-24 14:28:15,0.0
5210,685,-2151,418,-71,-364,2024-01-24 14:28:15,0.0
4091,-1126,507,940,-487,220,2024-01-24 14:28:15,0.0
5953,1264,-176,545,342,-111,2024-01-24 14:28:15,0.0
2596,729,774,-367,394,493,2024-01-24 14:28:15,0.0
1754,-646,748,-718,-761,538,2024-01-24 14:28:15,0.0
3688,-1026,1091,-388,-223,18,2024-01-24 14:28:15,0.0
3479,-1226,884,-52,13,140,2024-01-24 14:28:15,0.0
4706,-651,865,356,-488,-81,2024-01-24 14:28:15,0.0
5237,1511,1684,-31,160,560,2024-01-24 14:28:15,0.0
5554,-2323,-255,-457,184,-92,2024-01-24 14:28:16,0.0
5707,-542,-1183,-121,-167,705,2024-01-24 14:28:16,0.0
5399,180,152,-730,1152,-344,2024-01-24 14:28:16,0.0
3404,-1667,808,-612,563,-706,2024-01-24 14:28:16,0.0
2376,-1121,615,310,-303,-552,2024-01-24 14:28:16,0.0
3119,663,922,665,-71,-487,2024-01-24 14:28:16,0.0
3392,647,844,191,-260,-123,2024-01-24 14:28:16,0.0
3488,-441,1620,30,-71,46,2024-01-24 14:28:16,0.0
5024,520,1014,-181,-417,-144,2024-01-24 14:28:16,0.0
5302,-1082,1794,52,40,15,2024-01-24 14:28:16,0.0
7385,835,-1161,28,-94,-576,2024-01-24 14:28:16,0.0
3449,-1105,-124,539,124,247,2024-01-24 14:28:16,0.0
5334,-844,-307,1120,-178,245,2024-01-24 14:28:16,0.0
3440,1728,138,397,633,392,2024-01-24 14:28:16,0.0
1817,122,561,-339,-377,596,2024-01-24 14:28:16,0.0
3494,-1399,1128,-295,-575,107,2024-01-24 14:28:16,0.0
3386,-627,1113,12,-264,84,2024-01-24 14:28:16,0.0
3850,-89,267,-169,86,-128,2024-01-24 14:28:17,0.0
5916,-1792,1794,351,-128,193,2024-01-24 14:28:17,0.0
6490,274,-370,337,-115,387,2024-01-24 14:28:17,0.0
4413,-634,-802,-54,89,1055,2024-01-24 14:28:17,0.0
6034,300,-941,-331,628,-151,2024-01-24 14:28:17,0.0
4785,-964,138,-1132,577,-275,2024-01-24 14:28:17,
2201,-1475,355,-490,230,-646,2024-01-24 14:28:17,0.0
2875,-417,627,216,-213,-745,2024-01-24 14:28:17,0.0
3160,1072,1179,112,-79,-249,2024-01-24 14:28:17,0.0
3009,-62,1088,0,-776,175,2024-01-24 14:28:17,0.0
5605,57,149,-50,69,239,2024-01-24 14:28:17,0.0
5198,-500,2438,-297,125,-241,2024-01-24 14:28:17,0.0
6067,173,-730,-158,-1185,-368,2024-01-24 14:28:17,0.0
5447,-429,-1435,-33,743,-320,2024-01-24 14:28:17,0.0
4732,-1198,153,802,50,147,2024-01-24 14:28:17,0.0
4536,1155,-226,496,318,228,2024-01-24 14:28:18,0.0
2163,475,346,-314,-92,398,2024-01-24 14:28:19,0.0
2485,-919,854,-564,-583,183,2024-01-24 14:28:19,0.0
4165,-1123,1308,-99,31,-160,2024-01-24 14:28:19,0.0
3434,-312,364,8,-27,48,2024-01-24 14:28:19,0.0
5616,-1206,1518,375,-243,264,2024-01-24 14:28:19,0.0
6106,-313,388,131,262,202,2024-01-24 14:28:19,0.0
4632,-371,-1274,31,-144,1170,2024-01-24 14:28:21,0.0
2915,-96,890,164,-353,-514,2024-01-24 14:28:21,0.0
3205,1006,1078,-155,-248,-258,2024-01-24 14:28:21,0.0
3974,-307,949,-104,-244,-4,2024-01-24 14:28:21,0.0
4843,-91,932,-209,-569,56,2024-01-24 14:28:21,0.0
5871,-719,1614,-33,266,-111,2024-01-24 14:28:21,0.0
7024,908,-1837,-150,-699,-467,2024-01-24 14:28:21,0.0
3889,-999,-237,114,582,-14,2024-01-24 14:28:21,0.0
5132,-516,100,598,-12,69,2024-01-24 14:28:21,0.0
2784,198,208,-221,-205,447,2024-01-24 14:28:21,0.0
2849,-508,761,-452,-262,325,2024-01-24 14:28:21,0.0
3404,-809,1007,-222,-86,256,2024-01-24 14:28:21,0.0
3430,-492,847,-126,174,15,2024-01-24 14:28:21,0.0
5210,-927,1039,188,-263,226,2024-01-24 14:28:37,0.0
5693,152,1434,161,159,150,2024-01-24 14:28:37,0.0
5938,-1219,-1667,-126,-114,738,2024-01-24 14:28:37,0.0
5382,-1294,-1172,77,-308,814,2024-01-24 14:28:37,0.0
4550,-51,-690,146,269,-41,2024-01-24 14:28:37,0.0
5033,263,-83,-701,287,-160,2024-01-24 14:28:37,0.0
2915,-1154,112,-543,459,-402,2024-01-24 14:28:37,0.0
2826,-977,445,156,-194,-519,2024-01-24 14:28:37,0.0
4783,-77,-1598,-20,471,779,2024-01-24 14:28:37,0.0
3675,-859,-398,361,929,-208,2024-01-24 14:28:38,0.0
4802,-971,303,1056,-260,205,2024-01-24 14:28:38,0.0
4611,1903,-167,412,528,359,2024-01-24 14:28:38,0.0
2512,247,223,-587,17,459,2024-01-24 14:28:38,0.0
2899,-1171,998,-556,-436,241,2024-01-24 14:28:38,0.0
3387,-593,897,-251,-242,163,2024-01-24 14:28:38,0.0
3774,-342,843,-376,121,-53,2024-01-24 14:28:38,0.0
5317,-1325,1137,135,-398,204,2024-01-24 14:28:38,0.0
5818,-77,1455,317,482,570,2024-01-24 14:28:38,0.0
6073,-807,-1227,-61,-423,643,2024-01-24 14:28:38,0.0
4375,-53,-892,-54,142,221,2024-01-24 14:28:38,0.0
4985,669,-429,-788,382,-388,2024-01-24 14:28:38,0.0
3618,-927,279,-824,556,-399,2024-01-24 14:28:38,0.0
2771,-1093,696,-174,7,-526,2024-01-24 14:28:38,0.0
3699,504,1290,-28,-75,-507,2024-01-24 14:28:38,0.0
2519,418,993,-342,-319,-209,2024-01-24 14:28:38,0.0
4922,82,682,-178,63,87,2024-01-24 14:28:38,0.0
4955,190,1430,-234,76,-36,2024-01-24 14:28:38,0.0
4647,-1187,2099,51,113,-182,2024-01-24 14:28:39,0.0
7733,761,-1944,93,-528,-398,2024-01-24 14:28:39,0.0
4117,-936,-915,306,527,-179,2024-01-24 14:28:39,0.0
4572,-1100,104,860,285,-91,2024-01-24 14:28:39,0.0
3904,1381,167,426,486,309,2024-01-24 14:28:39,0.0
2883,842,372,-513,108,347,2024-01-24 14:28:39,0.0
3141,-1066,1182,-551,-125,218,2024-01-24 14:28:39,0.0
3079,-720,1182,-266,-428,282,2024-01-24 14:28:39,0.0
3949,-186,707,-364,9,-177,2024-01-24 14:28:39,0.0
4924,-1437,1419,208,-326,332,2024-01-24 14:28:39,0.0
6006,237,1512,377,193,419,2024-01-24 14:28:39,0.0
5433,-864,-1193,-257,-202,493,2024-01-24 14:28:39,0.0
4479,-155,-535,-131,-29,357,2024-01-24 14:28:39,0.0
5218,265,45,-672,627,-407,2024-01-24 14:28:39,0.0
2712,-1144,589,-504,251,-502,2024-01-24 14:28:39,0.0
2795,-1242,598,233,-127,-493,2024-01-24 14:28:39,0.0
3867,906,1073,303,-103,-468,2024-01-24 14:28:40,0.0
2721,553,1126,-39,-116,-143,2024-01-24 14:28:40,0.0
4531,-460,907,46,-263,97,2024-01-24 14:28:40,0.0
5061,932,1656,-330,333,-167,2024-01-24 14:28:40,0.0
4570,-733,1669,-245,-40,-231,2024-01-24 14:28:40,0.0
6850,274,-1621,-222,-717,-324,2024-01-24 14:28:40,0.0
4340,-1588,-83,581,213,-13,2024-01-24 14:28:40,0.0
4879,206,-120,773,155,140,2024-01-24 14:28:40,0.0
3072,500,321,484,156,312,2024-01-24 14:28:40,0.0
2821,361,363,-173,-160,413,2024-01-24 14:28:40,0.0
3200,-858,1115,-204,-365,388,2024-01-24 14:28:40,0.0
3454,-772,936,-65,-492,205,2024-01-24 14:28:40,0.0
3789,-279,595,-155,44,-59,2024-01-24 14:28:40,0.0
5106,-1114,1381,332,25,290,2024-01-24 14:28:40,0.0
5733,-68,1249,283,22,198,2024-01-24 14:28:40,0.0
5669,-1063,-1720,21,-177,625,2024-01-24 14:28:40,0.0
5155,-10,-372,-58,39,160,2024-01-24 14:28:48,0.0
5049,-339,-97,-547,491,-385,2024-01-24 14:28:48,0.0
2758,-702,352,-424,69,-392,2024-01-24 14:28:48,0.0
3128,-920,397,31,-336,-316,2024-01-24 14:28:48,0.0
3119,438,765,331,-103,-321,2024-01-24 14:28:48,0.0
3081,468,662,59,-251,-53,2024-01-24 14:28:48,0.0
4774,-465,659,0,83,6,2024-01-24 14:28:48,0.0
4814,-122,2021,-104,418,-176,2024-01-24 14:28:48,0.0
5404,-607,290,103,-538,-32,2024-01-24 14:28:48,0.0
5693,-1147,1641,325,-16,439,2024-01-24 14:28:48,0.0
4988,353,951,218,232,246,2024-01-24 14:28:48,0.0
5350,-1418,-817,48,-169,977,2024-01-24 14:28:51,
5393,303,-860,-89,-28,-26,2024-01-24 14:28:51,0.0
5137,-516,-291,-723,615,-314,2024-01-24 14:28:51,0.0
2599,-1338,347,-368,122,-476,2024-01-24 14:28:51,0.0
3282,-592,510,496,-107,-413,2024-01-24 14:28:51,0.0
3754,472,735,562,-139,-207,2024-01-24 14:28:51,0.0
3487,-140,925,454,-208,-119,2024-01-24 14:28:51,0.0
2989,-287,369,258,-359,431,2024-01-24 14:28:51,0.0
3813,-836,697,371,-118,166,2024-01-24 14:28:52,0.0
5382,-991,541,259,43,126,2024-01-24 14:28:52,0.0
4635,46,1803,-150,301,318,2024-01-24 14:28:52,0.0
7060,-896,-2273,-84,-642,718,2024-01-24 14:28:52,0.0
5342,245,-976,25,776,618,2024-01-24 14:28:52,0.0
4381,812,-265,-1162,161,-366,2024-01-24 14:28:52,0.0
3569,-1001,-166,-1153,489,-631,2024-01-24 14:28:52,0.0
2557,-817,548,-410,-212,-318,2024-01-24 14:28:52,0.0
3279,366,700,-119,-214,-492,2024-01-24 14:28:52,0.0
3211,21,844,-281,280,-39,2024-01-24 14:28:52,0.0
4220,-102,458,66,-107,229,2024-01-24 14:28:52,0.0
5453,328,1582,-200,-157,31,2024-01-24 14:28:52,0.0
4825,-1771,1359,87,41,-112,2024-01-24 14:28:52,0.0
6984,1846,-2156,230,-1270,-318,2024-01-24 14:28:52,0.0
4167,-1372,-533,126,442,-116,2024-01-24 14:28:52,0.0
4785,237,-511,562,45,-30,2024-01-24 14:28:53,0.0
3646,854,-41,-302,465,253,2024-01-24 14:28:53,0.0
2315,333,142,-1056,-6,205,2024-01-24 14:28:53,0.0
3187,-1407,984,-816,-236,111,2024-01-24 14:28:53,0.0
3441,-473,601,-559,-231,-69,2024-01-24 14:28:53,0.0
4219,-339,362,-613,212,-303,2024-01-24 14:28:53,0.0
5954,-2039,1531,218,119,297,2024-01-24 14:28:53,0.0
5197,716,-1073,253,-380,79,2024-01-24 14:28:53,0.0
5277,-462,-904,124,554,1165,2024-01-24 14:28:53,0.0
4830,749,-236,-364,133,-269,2024-01-24 14:28:53,0.0
5010,-697,-368,-581,325,-201,2024-01-24 14:28:53,0.0
3112,-847,486,-162,-105,-323,2024-01-24 14:28:53,0.0
3238,-988,374,595,-382,-454,2024-01-24 14:28:53,0.0
2956,490,654,665,-43,-222,2024-01-24 14:28:53,0.0
3238,466,884,535,-108,132,2024-01-24 14:28:53,0.0
4841,-86,106,188,-393,241,2024-01-24 14:28:53,0.0
6235,-587,2078,95,257,-161,2024-01-24 14:28:53,0.0
5550,83,-408,52,-973,-299,2024-01-24 14:28:53,0.0
5454,774,-2239,-146,198,-401,2024-01-24 14:28:54,0.0
3982,-1895,132,638,62,192,2024-01-24 14:28:54,0.0
5918,993,-764,648,106,-4,2024-01-24 14:28:54,0.0
2529,874,456,-89,379,464,2024-01-24 14:28:54,0.0
2139,-771,717,-492,-393,320,2024-01-24 14:28:54,0.0
3412,-880,924,-158,-121,132,2024-01-24 14:28:54,0.0
3907,-495,85,-41,-28,57,2024-01-24 14:28:54,0.0
5035,-994,1015,91,143,-66,2024-01-24 14:28:54,0.0
5725,159,1753,264,397,780,2024-01-24 14:28:54,0.0
5374,-1310,-1730,118,-1086,460,2024-01-24 14:28:54,0.0
5228,-427,-1530,376,587,610,2024-01-24 14:28:54,0.0
5057,882,-123,-448,293,-413,2024-01-24 14:28:54,0.0
4014,-942,-89,-828,660,-434,2024-01-24 14:28:54,0.0
2556,-1141,169,-196,112,-275,2024-01-24 14:28:54,0.0
3294,495,662,90,10,-519,2024-01-24 14:28:54,0.0
3318,495,906,-347,-76,-268,2024-01-24 14:28:54,0.0
3371,-510,981,-108,-469,108,2024-01-24 14:28:54,0.0
5249,64,484,-97,102,62,2024-01-24 14:28:55,0.0
4541,-561,2336,-72,216,-128,2024-01-24 14:28:55,0.0
6125,82,-356,52,-868,-328,2024-01-24 14:28:55,0.0
5164,-67,-1973,63,163,-288,2024-01-24 14:28:55,0.0
4757,-1642,154,620,-7,38,2024-01-24 14:28:55,0.0
5050,1338,-182,325,44,148,2024-01-24 14:28:55,0.0
2806,915,214,-584,-105,445,2024-01-24 14:28:55,0.0
2391,-850,735,-852,-374,325,2024-01-24 14:28:55,0.0
3784,-1058,925,-372,-173,150,2024-01-24 14:28:55,0.0
3443,-656,464,-184,439,-47,2024-01-24 14:28:55,0.0
4980,-45,975,-68,-270,97,2024-01-24 14:28:55,0.0
5780,-467,1858,102,325,281,2024-01-24 14:28:55,0.0
6374,-999,-1950,-226,-532,599,2024-01-24 14:28:55,0.0
4229,103,-420,-268,-13,228,2024-01-24 14:28:55,0.0
5677,-332,-480,-946,359,-397,2024-01-24 14:28:55,0.0
2658,-1016,286,-650,369,-354,2024-01-24 14:28:55,0.0
2813,-839,359,54,-223,-482,2024-01-24 14:28:55,0.0
3764,438,744,175,-210,-302,2024-01-24 14:28:55,0.0
2937,149,946,-25,-163,-45,2024-01-24 14:28:56,0.0
4886,-393,487,110,-51,212,2024-01-24 14:28:56,0.0
5476,570,1399,-175,269,-201,2024-01-24 14:28:56,0.0
4814,-1132,914,138,154,-96,2024-01-24 14:28:56,0.0
6320,682,-2489,151,-168,-513,2024-01-24 14:28:56,0.0
4963,-1777,134,632,152,77,2024-01-24 14:28:56,0.0
4840,404,-521,723,-216,147,2024-01-24 14:28:56,0.0
2778,957,280,39,-215,256,2024-01-24 14:28:56,0.0
2722,-251,334,-506,-331,259,2024-01-24 14:28:56,0.0
3994,-1666,969,-5,-51,200,2024-01-24 14:28:56,0.0
3369,-136,673,121,-57,79,2024-01-24 14:28:56,0.0
4228,-925,445,79,-48,-35,2024-01-24 14:28:56,0.0
5897,-490,1492,485,463,428,2024-01-24 14:28:56,0.0
5695,-950,-1080,-18,-814,460,2024-01-24 14:28:56,0.0
4503,-770,-1288,16,472,822,2024-01-24 14:28:56,0.0
5775,1050,-569,-350,421,-68,2024-01-24 14:28:56,0.0
3908,-1048,121,-877,514,-402,2024-01-24 14:28:56,0.0
2468,-1390,380,-353,-46,-370,2024-01-24 14:28:56,0.0
3852,-14,519,225,-35,-506,2024-01-24 14:28:57,0.0
3493,772,808,-62,-3,-243,2024-01-24 14:28:57,0.0
3390,-532,860,64,-409,80,2024-01-24 14:28:57,0.0
5006,129,715,-185,50,-29,2024-01-24 14:28:57,0.0
5300,-317,1799,-262,382,-156,2024-01-24 14:28:57,0.0
5627,-104,147,-91,-916,-372,2024-01-24 14:28:57,0.0
4764,191,-2188,-296,414,-278,2024-01-24 14:28:57,
5206,-1471,-66,245,-117,-37,2024-01-24 14:28:57,0.0
4761,640,-200,169,340,87,2024-01-24 14:28:57,0.0
2928,308,331,-288,-257,330,2024-01-24 14:28:57,0.0
3366,-353,619,-613,-208,242,2024-01-24 14:28:57,0.0
3288,-1233,920,-226,-115,310,2024-01-24 14:28:57,0.0
3904,-588,1144,-171,68,-129,2024-01-24 14:28:57,0.0
3157,-1101,650,252,-285,64,2024-01-24 14:28:57,0.0
6244,-245,1624,535,-79,448,2024-01-24 14:28:57,0.0
5905,-1290,-1024,169,-618,165,2024-01-24 14:28:57,0.0
4417,-1243,-1331,361,452,803,2024-01-24 14:28:57,0.0
5574,892,-291,-166,488,-207,2024-01-24 14:28:58,0.0
4444,-891,-46,-643,641,-450,2024-01-24 14:28:58,0.0
2495,-1773,587,-22,-233,-421,2024-01-24 14:28:58,0.0
3755,-17,642,492,-173,-599,2024-01-24 14:28:58,0.0
3297,1052,681,-2,-139,-264,2024-01-24 14:28:58,0.0
4072,-402,671,52,-27,111,2024-01-24 14:28:58,0.0
4722,-355,795,11,186,72,2024-01-24 14:28:58,0.0
4790,-347,2231,-86,296,-238,2024-01-24 14:28:58,0.0
6806,-325,-823,149,-865,-376,2024-01-24 14:28:58,0.0
4590,-565,-1190,243,-244,-90,2024-01-24 14:28:58,0.0
4505,-575,326,661,67,65,2024-01-24 14:28:58,0.0
3847,1193,111,104,5,348,2024-01-24 14:28:58,0.0
2900,394,270,-664,-262,263,2024-01-24 14:28:58,0.0
3328,-1646,1045,-480,-403,248,2024-01-24 14:28:58,0.0
3501,-935,879,73,159,101,2024-01-24 14:28:58,0.0
3637,-356,658,-63,46,-90,2024-01-24 14:28:58,0.0
5562,-1156,1259,409,-142,341,2024-01-24 14:28:58,0.0
5335,637,1184,206,458,265,2024-01-24 14:28:59,0.0
5456,-240,-1297,-479,-59,823,2024-01-24 14:28:59,0.0
4700,191,-642,-616,156,147,2024-01-24 14:28:59,0.0
4909,-448,-6,-1525,387,-396,2024-01-24 14:28:59,0.0
2911,-1120,469,-1206,284,-418,2024-01-24 14:28:59,0.0
3029,-932,450,-455,-199,-665,2024-01-24 14:28:59,0.0
3459,534,997,-312,-117,-409,2024-01-24 14:28:59,0.0
3227,150,824,-400,-171,-128,2024-01-24 14:28:59,0.0
4365,-437,743,-279,-97,56,2024-01-24 14:28:59,0.0
5477,-482,1495,-198,15,-267,2024-01-24 14:28:59,0.0
5290,-574,643,98,-310,-248,2024-01-24 14:28:59,0.0
6024,1392,-2499,254,-175,-410,2024-01-24 14:28:59,0.0
4432,-1453,386,785,-7,168,2024-01-24 14:28:59,0.0
5083,1188,-371,664,-56,1,2024-01-24 14:28:59,0.0
2961,601,-33,-139,75,584,2024-01-24 14:28:59,0.0
2503,-458,544,-434,-316,253,2024-01-24 14:28:59,0.0
3429,-1239,963,-93,-210,136,2024-01-24 14:28:59,0.0
4076,-594,856,16,-263,85,2024-01-24 14:28:59,0.0
4893,-1039,549,553,-103,97,2024-01-24 14:29:00,0.0
5623,113,1441,585,320,580,2024-01-24 14:29:00,0.0
5616,-643,-1513,106,-416,205,2024-01-24 14:29:00,0.0
4918,-562,-1294,-76,376,708,2024-01-24 14:29:00,0.0
5195,759,13,-875,595,-244,2024-01-24 14:29:00,0.0
3646,-1195,416,-1035,633,-501,2024-01-24 14:29:00,0.0
2746,-2052,642,128,-175,-420,2024-01-24 14:29:00,0.0
3221,57,765,873,-40,-624,2024-01-24 14:29:00,0.0
3198,983,667,304,-295,-171,2024-01-24 14:29:00,0.0
4478,-175,1186,140,30,195,2024-01-24 14:29:00,0.0
4965,475,1300,-216,147,-132,2024-01-24 14:29:00,0.0
5322,-1165,1445,115,334,-136,2024-01-24 14:29:00,0.0
6798,534,-2221,320,-583,-575,2024-01-24 14:29:00,0.0
3639,-1770,210,1224,699,264,2024-01-24 14:29:00,0.0
5209,553,-359,1173,-312,57,2024-01-24 14:29:00,0.0
2914,1858,248,139,549,410,2024-01-24 14:29:00,0.0
2068,-177,368,-651,-255,495,2024-01-24 14:29:00,0.0
3552,-1599,1365,-347,-127,109,2024-01-24 14:29:00,0.0
3647,-569,514,-196,-449,194,2024-01-24 14:29:01,0.0
4654,256,694,-358,-234,-279,2024-01-24 14:29:01,0.0
5509,-1267,1821,219,-96,774,2024-01-24 14:29:01,0.0
5931,-1358,-1379,193,-675,-8,2024-01-24 14:29:01,0.0
4504,-718,-945,-28,375,779,2024-01-24 14:29:01,0.0
5950,633,-537,-452,321,-297,2024-01-24 14:29:01,0.0
3939,-769,316,-831,451,-399,2024-01-24 14:29:01,0.0
2551,-1316,361,-151,-262,-361,2024-01-24 14:29:01,0.0
3526,-285,560,485,-283,-496,2024-01-24 14:29:01,0.0
3470,681,583,170,-2,-123,2024-01-24 14:29:01,0.0
3939,-520,665,143,-116,68,2024-01-24 14:29:01,0.0
5234,439,803,-4,152,4,2024-01-24 14:29:01,0.0
4657,-829,1842,-144,507,-209,2024-01-24 14:29:01,0.0
6956,198,-1079,78,-789,-433,2024-01-24 14:29:01,0.0
3591,-551,-1002,336,759,-155,2024-01-24 14:29:01,0.0
4822,-1474,27,962,-364,67,2024-01-24 14:29:01,0.0
4623,1827,-415,402,370,133,2024-01-24 14:29:01,0.0
2519,543,432,-517,10,374,2024-01-24 14:29:02,0.0
3288,-1352,1073,-522,-266,209,2024-01-24 14:29:02,0.0
3613,-948,994,-74,-164,131,2024-01-24 14:29:02,0.0
3805,-520,564,-142,140,-160,2024-01-24 14:29:02,0.0
5442,-680,1406,298,0,360,2024-01-24 14:29:02,0.0
4455,62,1555,184,206,414,2024-01-24 14:29:02,0.0
5781,-749,-1188,-219,-234,675,2024-01-24 14:29:02,0.0
3931,190,-889,-246,-12,448,2024-01-24 14:29:02,0.0
5512,326,-353,-1101,546,-341,2024-01-24 14:29:02,0.0
3014,-1184,394,-1017,262,-427,2024-01-24 14:29:02,0.0
3042,-1238,334,-200,-255,-464,2024-01-24 14:29:02,0.0
4171,675,403,-71,-289,-436,2024-01-24 14:29:02,0.0
3227,51,602,-245,-156,-203,2024-01-24 14:29:02,0.0
4633,-391,805,-95,64,149,2024-01-24 14:29:02,0.0
4113,227,832,-338,68,-130,2024-01-24 14:29:02,0.0
4813,-962,1365,-275,12,-114,2024-01-24 14:29:02,0.0
6437,111,-810,101,-874,-165,2024-01-24 14:29:02,0.0
3877,-162,-911,124,473,-183,2024-01-24 14:29:03,0.0
5256,-866,-293,489,-285,-4,2024-01-24 14:29:03,0.0
4310,1058,-175,-77,251,146,2024-01-24 14:29:03,
2915,325,119,-665,-19,321,2024-01-24 14:29:03,0.0
3417,-1067,904,-756,-107,53,2024-01-24 14:29:03,0.0
3504,-382,821,-696,-75,31,2024-01-24 14:29:03,0.0
3857,-738,430,-633,-51,-118,2024-01-24 14:29:03,0.0
4708,-2354,795,374,-99,394,2024-01-24 14:29:03,0.0
5187,-434,1123,912,341,110,2024-01-24 14:29:03,0.0
6220,-17,-587,342,-321,535,2024-01-24 14:29:03,0.0
3676,389,-973,151,397,477,2024-01-24 14:29:03,0.0
5090,921,-402,-667,124,-131,2024-01-24 14:29:03,0.0
4019,-937,265,-856,161,-526,2024-01-24 14:29:03,0.0
2932,-1201,524,-227,-41,-319,2024-01-24 14:29:03,0.0
3840,521,702,21,-125,-513,2024-01-24 14:29:03,0.0
3016,100,1016,104,-89,-201,2024-01-24 14:29:03,0.0
3996,-307,858,342,-59,141,2024-01-24 14:29:03,0.0
4621,46,936,-45,-68,48,2024-01-24 14:29:03,0.0
5406,-621,1772,-83,288,-256,2024-01-24 14:29:04,0.0
6422,72,-587,218,-1046,-292,2024-01-24 14:29:04,0.0
4786,-390,-1103,351,437,-242,2024-01-24 14:29:04,0.0
4500,-633,-78,692,-19,88,2024-01-24 14:29:04,0.0
4444,1154,-106,253,210,230,2024-01-24 14:29:04,0.0
2855,225,385,-377,-85,383,2024-01-24 14:29:04,0.0
3160,-998,993,-313,-224,339,2024-01-24 14:29:04,0.0
3362,-662,1036,-21,31,215,2024-01-24 14:29:04,0.0
3670,-823,580,136,150,-139,2024-01-24 14:29:04,0.0
5778,-855,1419,645,41,391,2024-01-24 14:29:04,0.0
5084,483,769,286,368,45,2024-01-24 14:29:04,0.0
4840,-962,-1385,-144,-355,820,2024-01-24 14:29:04,0.0
6145,-133,-209,-146,571,-21,2024-01-24 14:29:04,0.0
4409,-188,92,-869,431,-462,2024-01-24 14:29:04,0.0
2999,-877,330,-528,28,-370,2024-01-24 14:29:04,0.0
3283,-956,574,229,-85,-520,2024-01-24 14:29:04,0.0
3209,864,1094,196,-224,-318,2024-01-24 14:29:04,0.0
3830,170,1007,13,-321,-2,2024-01-24 14:29:04,0.0
4483,-364,615,-2,-153,89,2024-01-24 14:29:05,0.0
5178,-204,1715,-169,167,-384,2024-01-24 14:29:05,0.0
4935,-377,-66,-97,-959,-124,2024-01-24 14:29:05,0.0
5538,328,-2343,-23,502,-365,2024-01-24 14:29:05,0.0
4913,-1795,144,707,58,120,2024-01-24 14:29:05,0.0
5038,1259,-123,655,226,241,2024-01-24 14:29:05,0.0
3108,975,-219,-199,36,405,2024-01-24 14:29:05,0.0
2964,-1299,935,-329,-99,341,2024-01-24 14:29:05,0.0
3310,-880,1036,22,-132,160,2024-01-24 14:29:05,0.0
4387,79,582,-283,42,-34,2024-01-24 14:29:05,0.0
4782,-1322,1124,-211,56,38,2024-01-24 14:29:05,0.0
4460,-464,1662,-26,67,642,2024-01-24 14:29:05,0.0
6490,-724,-1353,-208,-221,408,2024-01-24 14:29:05,0.0
4564,469,-921,-505,269,446,2024-01-24 14:29:05,0.0
4925,768,6,-1333,649,-288,2024-01-24 14:29:05,0.0
3975,-988,460,-1375,370,-617,2024-01-24 14:29:05,0.0
3044,-1368,705,-602,56,-317,2024-01-24 14:29:05,0.0
3486,245,873,-138,-204,-580,2024-01-24 14:29:06,0.0
3194,381,742,-193,-272,-285,2024-01-24 14:29:06,0.0
3930,-412,942,0,-155,28,2024-01-24 14:29:06,0.0
5086,-397,813,61,-110,4,2024-01-24 14:29:06,0.0
4682,-1326,2042,296,122,-182,2024-01-24 14:29:06,0.0
5830,222,399,534,-780,159,2024-01-24 14:29:06,0.0
4866,1331,-2192,211,302,-137,2024-01-24 14:29:06,0.0
4800,-938,-126,322,-155,86,2024-01-24 14:29:06,0.0
5171,773,39,74,422,62,2024-01-24 14:29:06,0.0
3229,616,111,-620,104,277,2024-01-24 14:29:06,0.0
3347,-698,887,-861,-108,87,2024-01-24 14:29:06,0.0
3214,-818,846,-646,-187,25,2024-01-24 14:29:06,0.0
3684,-725,849,-668,-202,-232,2024-01-24 14:29:06,0.0
4147,-1458,928,-86,-185,-119,2024-01-24 14:29:06,0.0
5076,-1048,1251,696,-138,432,2024-01-24 14:29:06,0.0
5636,414,350,322,-175,40,2024-01-24 14:29:06,0.0
5443,-159,-252,-139,305,769,2024-01-24 14:29:06,0.0
4070,1454,-198,-1075,-196,9,2024-01-24 14:29:07,0.0
5529,-385,-298,-1528,671,-358,2024-01-24 14:29:07,0.0
2853,-1285,762,-821,282,-416,2024-01-24 14:29:07,0.0
2864,-732,822,-39,-211,-515,2024-01-24 14:29:07,0.0
4159,-188,984,348,-202,-290,2024-01-24 14:29:07,0.0
3238,-324,756,730,-242,-122,2024-01-24 14:29:07,0.0
3711,-257,645,875,-196,225,2024-01-24 14:29:07,0.0
5384,40,918,599,119,41,2024-01-24 14:29:07,0.0
4447,-268,1961,426,128,-7,2024-01-24 14:29:07,0.0
7765,271,-827,141,-1073,-229,2024-01-24 14:29:07,0.0
3084,574,-514,393,850,120,2024-01-24 14:29:07,0.0
5461,-529,-502,385,-569,183,2024-01-24 14:29:07,0.0
5141,1024,-278,-364,653,-186,2024-01-24 14:29:07,0.0
2453,-342,1038,-604,-438,470,2024-01-24 14:29:07,0.0
4116,-800,611,-479,-285,68,2024-01-24 14:29:07,0.0
2764,-642,1115,-576,-89,105,2024-01-24 14:29:07,0.0
3482,-1589,696,-218,-323,-63,2024-01-24 14:29:07,0.0
4919,-847,352,631,85,23,2024-01-24 14:29:07,0.0
4408,-321,1503,577,50,343,2024-01-24 14:29:08,0.0
6738,52,-681,273,-344,232,2024-01-24 14:29:08,0.0
3804,-529,-614,11,112,774,2024-01-24 14:29:08,0.0
5173,629,-318,-441,-382,-8,2024-01-24 14:29:08,0.0
4865,-232,305,-827,533,-430,2024-01-24 14:29:08,0.0
2581,-1622,453,-205,-257,-368,2024-01-24 14:29:08,0.0
3591,-647,649,552,-465,-538,2024-01-24 14:29:08,0.0
3883,841,503,328,-88,-328,2024-01-24 14:29:08,0.0
3498,-185,638,352,-365,17,2024-01-24 14:29:08,0.0
4549,-348,565,337,104,78,2024-01-24 14:29:08,0.0
5611,284,1264,47,361,-87,2024-01-24 14:29:08,0.0
4921,-1160,808,431,7,76,2024-01-24 14:29:08,0.0
5261,960,-1627,492,123,-361,2024-01-24 14:29:08,0.0
4411,-1476,-256,974,-509,146,2024-01-24 14:29:08,0.0
5722,328,-410,880,567,-33,2024-01-24 14:29:08,
2639,853,484,497,183,502,2024-01-24 14:29:08,0.0
3069,-282,761,11,-267,396,2024-01-24 14:29:08,0.0
3539,-1054,1144,38,-123,204,2024-01-24 14:29:08,0.0
3510,-399,895,19,-60,130,2024-01-24 14:29:09,0.0
3979,-864,711,218,-462,-80,2024-01-24 14:29:09,0.0
5908,-429,1270,509,134,481,2024-01-24 14:29:09,0.0
5857,-590,146,72,94,43,2024-01-24 14:29:09,0.0
3691,-1446,-1445,91,128,845,2024-01-24 14:29:09,0.0
5771,98,18,-315,72,-134,2024-01-24 14:29:09,0.0
4616,-219,527,-658,507,-228,2024-01-24 14:29:09,0.0
3011,-1205,456,-266,-114,-482,2024-01-24 14:29:09,0.0
3277,-487,605,259,58,-444,2024-01-24 14:29:09,0.0
3645,434,654,354,115,-257,2024-01-24 14:29:09,0.0
2947,-151,1568,309,-379,11,2024-01-24 14:29:09,0.0
4535,-319,847,364,13,69,2024-01-24 14:29:09,0.0
4985,213,2040,119,197,-109,2024-01-24 14:29:09,0.0
5522,-239,1239,254,181,-246,2024-01-24 14:29:09,0.0
5022,683,-854,59,-352,-432,2024-01-24 14:29:09,0.0
4316,-1438,-283,686,-319,160,2024-01-24 14:29:09,0.0
5334,-249,-245,982,384,71,2024-01-24 14:29:09,0.0
3498,1172,273,191,131,346,2024-01-24 14:29:09,0.0
2908,-88,583,-330,-438,355,2024-01-24 14:29:10,0.0
4237,-988,743,-174,-577,159,2024-01-24 14:29:10,0.0
3409,-97,580,-320,-313,262,2024-01-24 14:29:10,0.0
3645,-587,679,-259,136,-198,2024-01-24 14:29:10,0.0
4198,-578,768,66,-167,61,2024-01-24 14:29:10,0.0
5539,-39,1726,139,142,102,2024-01-24 14:29:10,0.0
5567,-1017,-1322,-251,-580,167,2024-01-24 14:29:10,0.0
4318,-695,-1257,164,-143,507,2024-01-24 14:29:10,0.0
5587,-346,-464,148,637,-110,2024-01-24 14:29:10,0.0
3606,-817,401,223,396,-232,2024-01-24 14:29:10,0.0
3732,-1700,-222,1294,-207,63,2024-01-24 14:29:10,0.0
3847,-293,32,1769,-72,-415,2024-01-24 14:29:10,0.0
3543,-307,33,1844,-110,-73,2024-01-24 14:29:10,0.0
3985,-134,200,1994,-96,134,2024-01-24 14:29:10,0.0
4118,-336,181,2006,-129,206,2024-01-24 14:29:10,0.0
4738,-90,524,2069,68,239,2024-01-24 14:29:10,0.0
4662,-1203,-337,2449,25,292,2024-01-24 14:29:10,0.0
5730,-685,-612,1749,-71,-69,2024-01-24 14:29:11,0.0
3014,-1349,-130,2501,-592,546,2024-01-24 14:29:11,0.0
5512,-728,-896,2360,-483,300,2024-01-24 14:29:11,0.0
3353,-210,177,2106,-185,473,2024-01-24 14:29:11,0.0
3960,-1515,86,2130,-593,206,2024-01-24 14:29:11,0.0
4457,-832,-227,2068,-162,102,2024-01-24 14:29:11,0.0
4020,-973,294,1902,-303,93,2024-01-24 14:29:11,0.0
4270,-1347,115,1866,-55,-38,2024-01-24 14:29:11,0.0
4272,-754,416,1782,-61,-187,2024-01-24 14:29:11,0.0
4089,-920,217,1579,-109,-165,2024-01-24 14:29:11,0.0
5784,-559,-1129,1238,18,-235,2024-01-24 14:29:11,0.0
4148,-152,-534,1269,388,101,2024-01-24 14:29:11,0.0
4195,-646,-180,1380,153,-23,2024-01-24 14:29:11,0.0
4807,-922,-123,1762,127,-91,2024-01-24 14:29:11,0.0
4234,85,-213,1942,-283,-259,2024-01-24 14:29:11,0.0
4466,220,-40,1707,-175,-339,2024-01-24 14:29:11,0.0
3678,394,431,1559,28,-217,2024-01-24 14:29:11,0.0
3225,-6,1053,1271,-379,-18,2024-01-24 14:29:11,0.0
4207,-370,712,1116,54,-68,2024-01-24 14:29:12,0.0
4727,-133,1202,1085,271,179,2024-01-24 14:29:12,0.0
5680,200,597,1025,341,120,2024-01-24 14:29:12,0.0
5848,-164,-565,767,305,-125,2024-01-24 14:29:12,0.0
3145,-784,-512,1519,92,336,2024-01-24 14:29:12,0.0
5257,32,-742,1452,100,72,2024-01-24 14:29:12,0.0
4075,662,-181,682,284,375,2024-01-24 14:29:12,0.0
3873,-146,77,609,5,391,2024-01-24 14:29:12,0.0
3537,-506,407,521,296,523,2024-01-24 14:29:12,0.0
2958,88,933,202,-128,557,2024-01-24 14:29:12,0.0
3971,-623,892,123,309,190,2024-01-24 14:29:12,0.0
4231,-439,1005,223,-159,317,2024-01-24 14:29:12,0.0
5463,580,1074,-120,40,167,2024-01-24 14:29:12,0.0
5881,-2069,-557,-259,-207,-255,2024-01-24 14:29:12,0.0
4532,-1017,-1145,-200,523,149,2024-01-24 14:29:12,0.0
5530,306,32,-763,373,-174,2024-01-24 14:29:12,0.0
4278,-836,381,-843,468,-411,2024-01-24 14:29:12,0.0
3103,-984,300,-543,-136,-337,2024-01-24 14:29:13,0.0
3367,-305,564,-158,-50,-375,2024-01-24 14:29:13,0.0
3281,241,928,-178,-50,-81,2024-01-24 14:29:13,0.0
3943,215,1183,-165,-278,135,2024-01-24 14:29:13,0.0
4330,-213,458,-399,-130,-27,2024-01-24 14:29:13,0.0
5026,-353,1655,-418,43,-263,2024-01-24 14:29:13,0.0
5348,-182,1117,-183,-314,-186,2024-01-24 14:29:13,0.0
5989,484,-901,-279,-29,-371,2024-01-24 14:29:13,0.0
3107,-1098,-98,159,-341,128,2024-01-24 14:29:13,0.0
5854,-21,-414,413,335,115,2024-01-24 14:29:13,0.0
3587,870,214,-137,599,269,2024-01-24 14:29:13,0.0
2437,-341,493,-490,-331,519,2024-01-24 14:29:13,0.0
4317,-889,711,-360,-332,172,2024-01-24 14:29:13,0.0
3335,-13,799,-478,-148,223,2024-01-24 14:29:13,0.0
3258,-749,869,-450,-60,-38,2024-01-24 14:29:13,0.0
5463,-1163,868,136,67,132,2024-01-24 14:29:13,0.0
4764,65,1686,99,237,314,2024-01-24 14:29:13,0.0
5632,-749,-1025,-79,-426,308,2024-01-24 14:29:13,0.0
3790,-103,-856,-185,218,269,2024-01-24 14:29:14,0.0
5966,247,-242,-823,675,-350,2024-01-24 14:29:14,0.0
3562,-1101,463,-762,681,-531,2024-01-24 14:29:14,0.0
2805,-1110,446,-127,-6,-488,2024-01-24 14:29:14,0.0
3138,214,857,160,1,-524,2024-01-24 14:29:14,0.0
2970,870,890,-270,-313,-206,2024-01-24 14:29:14,0.0
4542,-303,1056,-217,-38,124,2024-01-24 14:29:14,0.0
5341,35,1322,-303,118,-48,2024-01-24 14:29:14,0.0
4687,-706,1733,-217,292,-309,2024-01-24 14:29:14,
6710,-126,-656,172,-713,-339,2024-01-24 14:29:14,0.0
3598,-511,-31,470,499,-85,2024-01-24 14:29:14,0.0
5529,-659,-59,642,-142,186,2024-01-24 14:29:14,0.0
4185,654,67,378,204,284,2024-01-24 14:29:14,0.0
1661,110,916,67,-104,481,2024-01-24 14:29:14,0.0
3414,-1113,1275,35,-404,322,2024-01-24 14:29:14,0.0
3795,-201,1007,18,-167,184,2024-01-24 14:29:14,0.0
3961,-139,389,-173,-230,64,2024-01-24 14:29:14,0.0
5626,-1309,1522,68,138,157,2024-01-24 14:29:14,0.0
6201,-552,1120,-37,32,101,2024-01-24 14:29:15,0.0
4396,-475,-745,-89,-260,773,2024-01-24 14:29:15,0.0
5976,9,-431,-355,178,-157,2024-01-24 14:29:15,0.0
4396,-175,202,-750,746,-178,2024-01-24 14:29:15,0.0
2677,-1160,851,-523,63,-544,2024-01-24 14:29:15,0.0
3231,-848,674,129,-368,-370,2024-01-24 14:29:15,0.0
3404,908,987,86,-55,-393,2024-01-24 14:29:15,0.0
3518,4,1248,-16,-512,63,2024-01-24 14:29:15,0.0
4288,-235,551,-87,-248,64,2024-01-24 14:29:15,0.0
5428,-53,1751,-145,263,-93,2024-01-24 14:29:15,0.0
5991,-359,-215,-14,-886,-292,2024-01-24 14:29:15,0.0
4801,-359,-947,301,611,-130,2024-01-24 14:29:15,0.0
4489,-1297,217,810,-125,251,2024-01-24 14:29:15,0.0
5571,1336,-187,345,185,53,2024-01-24 14:29:15,0.0
2503,365,539,-257,84,526,2024-01-24 14:29:15,0.0
2639,-743,830,-423,-518,407,2024-01-24 14:29:15,0.0
3160,-816,1060,-82,-160,283,2024-01-24 14:29:15,0.0
4136,-483,667,-102,-218,-68,2024-01-24 14:29:16,0.0
5544,-803,1097,267,-66,82,2024-01-24 14:29:18,0.0
5112,-87,1321,166,351,383,2024-01-24 14:29:18,0.0
5932,-487,-1421,-381,-191,388,2024-01-24 14:29:18,0.0
4589,454,-406,-598,113,192,2024-01-24 14:29:18,0.0
5084,-337,-89,-1144,189,-510,2024-01-24 14:29:18,0.0
3237,-1374,486,-852,410,-390,2024-01-24 14:29:18,0.0
2825,-858,541,-39,-149,-351,2024-01-24 14:29:18,0.0
3425,572,1044,43,-208,-335,2024-01-24 14:29:18,0.0
3339,143,823,123,-244,-77,2024-01-24 14:29:18,0.0
5154,-869,-1139,-181,-395,306,2024-01-24 14:29:18,0.0
4783,-299,-1010,2,-117,401,2024-01-24 14:29:18,0.0
5062,336,-243,-782,670,-330,2024-01-24 14:29:18,0.0
3349,-1271,396,-849,340,-545,2024-01-24 14:29:18,0.0
2679,-1113,307,-115,148,-474,2024-01-24 14:29:18,0.0
3507,865,1084,-43,-17,-468,2024-01-24 14:29:18,0.0
3189,406,1098,-502,-47,-169,2024-01-24 14:29:18,0.0
4353,-742,1233,-326,-220,6,2024-01-24 14:29:18,0.0
5270,333,1206,-303,139,-63,2024-01-24 14:29:18,0.0
4549,-517,1701,-54,-158,-180,2024-01-24 14:29:18,0.0
7115,-257,-1058,123,-165,-473,2024-01-24 14:29:18,0.0
2972,-1159,-34,814,238,108,2024-01-24 14:29:19,0.0
5156,-659,-232,1149,-407,107,2024-01-24 14:29:19,0.0
4250,1411,-68,574,326,265,2024-01-24 14:29:19,0.0
2254,-57,670,240,-272,642,2024-01-24 14:29:19,0.0
3579,-1189,1266,137,-552,288,2024-01-24 14:29:19,0.0
3671,-333,806,249,-250,280,2024-01-24 14:29:19,0.0
3667,-531,658,79,263,-60,2024-01-24 14:29:19,0.0
5416,-1286,1326,481,-287,124,2024-01-24 14:29:19,0.0
4860,791,1356,213,395,310,2024-01-24 14:29:19,0.0
5975,-783,-1646,-301,-171,340,2024-01-24 14:29:19,0.0
3495,-20,-930,-275,-43,329,2024-01-24 14:29:19,0.0
5618,-12,-624,-963,511,-263,2024-01-24 14:29:19,0.0
3150,-1149,392,-897,511,-457,2024-01-24 14:29:19,0.0
2942,-833,594,-255,47,-389,2024-01-24 14:29:19,0.0
3993,574,841,-230,-53,-382,2024-01-24 14:29:19,0.0
3040,309,823,-450,-27,-160,2024-01-24 14:29:19,0.0
4397,-523,1083,-115,-181,150,2024-01-24 14:29:19,0.0
4462,137,933,-242,52,6,2024-01-24 14:29:20,0.0
4967,-365,1489,-34,53,-144,2024-01-24 14:29:20,0.0
5934,-245,-135,-30,-497,-503,2024-01-24 14:29:20,0.0
4435,-335,-926,171,323,-152,2024-01-24 14:29:20,0.0
4932,-2008,180,831,-226,69,2024-01-24 14:29:20,0.0
4789,878,14,861,180,85,2024-01-24 14:29:20,0.0
3098,277,282,371,-139,537,2024-01-24 14:29:20,0.0
3218,-710,859,200,-282,382,2024-01-24 14:29:20,0.0
3547,-599,944,306,-125,367,2024-01-24 14:29:20,0.0
3800,-466,789,175,38,16,2024-01-24 14:29:20,0.0
3797,-672,593,243,-330,38,2024-01-24 14:29:20,0.0
5840,-420,1420,387,157,405,2024-01-24 14:29:20,0.0
5016,-350,1171,-34,-94,66,2024-01-24 14:29:20,0.0
5000,-1423,-588,-140,268,385,2024-01-24 14:29:20,0.0
4863,454,-626,-467,-307,167,2024-01-24 14:29:20,0.0
5343,-135,-303,-975,673,-235,2024-01-24 14:29:20,0.0
3283,-1139,500,-740,239,-360,2024-01-24 14:29:20,0.0
3128,-447,481,-265,-78,-409,2024-01-24 14:29:20,0.0
3813,121,1017,-308,-88,-300,2024-01-24 14:29:21,0.0
3229,115,971,-265,-271,-154,2024-01-24 14:29:21,0.0
4230,-447,1158,22,-56,78,2024-01-24 14:29:21,0.0
4786,-222,1015,-83,-61,-82,2024-01-24 14:29:21,0.0
4396,-282,1913,56,103,-184,2024-01-24 14:29:21,0.0
5994,-153,450,174,-611,-146,2024-01-24 14:29:21,0.0
4884,134,-1349,242,300,-178,2024-01-24 14:29:21,0.0
4686,-1673,60,797,-233,69,2024-01-24 14:29:21,0.0
5291,995,312,757,154,184,2024-01-24 14:29:21,0.0
3157,527,344,59,-20,435,2024-01-24 14:29:21,0.0
2539,-913,769,-203,-659,402,2024-01-24 14:29:21,0.0
3616,-847,776,73,-271,256,2024-01-24 14:29:21,0.0
3761,-368,668,-15,-172,72,2024-01-24 14:29:21,0.0
4318,-277,513,-64,-396,-102,2024-01-24 14:29:22,0.0
5849,-421,1321,314,45,444,2024-01-24 14:29:22,0.0
5680,-157,815,-86,-170,-189,2024-01-24 14:29:22,0.0
4707,-1054,-1310,-488,304,423,2024-01-24 14:29:22,0.0
5459,112,-606,-603,51,46,2024-01-24 14:29:22,
5147,-516,-367,-1149,637,-519,2024-01-24 14:29:22,0.0
2609,-1055,427,-707,3,-304,2024-01-24 14:29:22,0.0
3118,-239,440,-98,-337,-344,2024-01-24 14:29:22,0.0
3981,768,798,-446,-58,-195,2024-01-24 14:29:22,0.0
3059,-335,905,-358,-364,87,2024-01-24 14:29:22,0.0
5009,-488,110,10,-270,97,2024-01-24 14:29:22,0.0
4501,-1302,1461,143,-452,-28,2024-01-24 14:29:22,0.0
6559,557,-1774,71,-92,-394,2024-01-24 14:29:22,0.0
3902,-1341,-1249,337,-223,-104,2024-01-24 14:29:22,0.0
4791,-911,-332,963,39,16,2024-01-24 14:29:22,0.0
4049,1062,-581,560,129,136,2024-01-24 14:29:22,0.0
3177,308,12,-134,6,255,2024-01-24 14:29:22,0.0
3594,-1161,781,-138,-46,263,2024-01-24 14:29:22,0.0
3355,-286,488,86,60,263,2024-01-24 14:29:22,0.0
3820,-303,427,-150,298,-45,2024-01-24 14:29:22,0.0
4992,-1300,658,290,20,65,2024-01-24 14:29:22,0.0
5663,201,1441,351,107,119,2024-01-24 14:29:23,0.0
3735,808,294,-289,-222,-275,2024-01-24 14:29:23,0.0
3126,445,734,-394,-322,-103,2024-01-24 14:29:23,0.0
4669,-47,753,-90,-219,150,2024-01-24 14:29:23,0.0
4456,563,485,-232,-63,27,2024-01-24 14:29:23,0.0
5181,-318,1384,-157,80,-75,2024-01-24 14:29:23,0.0
6045,503,-1185,114,-478,-226,2024-01-24 14:29:23,0.0
4235,-277,-1208,159,173,-181,2024-01-24 14:29:23,0.0
5007,-1499,271,803,256,-93,2024-01-24 14:29:23,0.0
4331,1799,-407,481,80,21,2024-01-24 14:29:23,0.0
3116,737,-51,-365,-65,440,2024-01-24 14:29:23,0.0
3512,-954,601,-478,-304,397,2024-01-24 14:29:23,0.0
3537,-781,639,-14,-3,393,2024-01-24 14:29:23,0.0
3918,-216,533,-167,156,-7,2024-01-24 14:29:24,0.0
4633,-361,456,34,-145,145,2024-01-24 14:29:24,0.0
5327,181,1209,190,292,333,2024-01-24 14:29:24,0.0
5902,-432,208,-74,-264,153,2024-01-24 14:29:24,0.0
4150,-776,-1612,-236,322,375,2024-01-24 14:29:24,0.0
5970,406,-537,-474,400,115,2024-01-24 14:29:24,0.0
4297,-1231,239,-778,526,-394,2024-01-24 14:29:24,0.0
3053,-1018,277,79,-134,-350,2024-01-24 14:29:24,0.0
3791,-41,235,584,-224,-386,2024-01-24 14:29:24,0.0
3828,868,571,274,-267,-205,2024-01-24 14:29:24,0.0
3551,-328,738,553,-379,32,2024-01-24 14:29:24,0.0
4331,-283,498,814,-260,100,2024-01-24 14:29:24,0.0
5266,646,753,594,322,-74,2024-01-24 14:29:24,0.0
5225,-397,788,938,296,-170,2024-01-24 14:29:24,0.0
5352,-263,-1995,709,225,-574,2024-01-24 14:29:24,0.0
3781,-733,439,1059,-119,54,2024-01-24 14:29:24,0.0
5486,600,-160,885,-202,56,2024-01-24 14:29:24,0.0
3186,751,86,167,311,356,2024-01-24 14:29:24,0.0
2807,198,497,-315,-443,642,2024-01-24 14:29:25,0.0
4262,-934,570,-431,43,426,2024-01-24 14:29:25,0.0
3500,-113,634,-614,-165,311,2024-01-24 14:29:25,0.0
3617,-239,612,-663,70,4,2024-01-24 14:29:25,0.0
5094,-803,810,-397,216,315,2024-01-24 14:29:25,0.0
5194,646,1418,-571,331,160,2024-01-24 14:29:25,0.0
6120,-1305,48,-715,-112,-7,2024-01-24 14:29:25,0.0
3592,-1122,-1015,-506,354,197,2024-01-24 14:29:25,0.0
5466,295,-480,-824,227,-110,2024-01-24 14:29:25,0.0
4459,-874,353,-993,489,-540,2024-01-24 14:29:25,0.0
2626,-1229,271,-267,80,-408,2024-01-24 14:29:25,0.0
3627,874,745,-21,-156,-395,2024-01-24 14:29:25,0.0
3850,222,1030,-336,-317,-244,2024-01-24 14:29:25,0.0
3462,-547,1140,-46,-48,-49,2024-01-24 14:29:25,0.0
4734,-131,549,89,-105,45,2024-01-24 14:29:25,0.0
5263,-494,1880,174,26,-129,2024-01-24 14:29:25,0.0
6032,573,-20,128,-364,-386,2024-01-24 14:29:25,0.0
4369,-93,-1351,136,168,-220,2024-01-24 14:29:26,0.0
4959,-1732,37,835,206,-26,2024-01-24 14:29:26,0.0
4520,1493,206,562,466,-157,2024-01-24 14:29:26,0.0
2412,1346,453,-181,-303,691,2024-01-24 14:29:26,0.0
3630,-1185,842,-340,-389,599,2024-01-24 14:29:26,0.0
2871,-738,1140,134,-140,669,2024-01-24 14:29:26,0.0
4115,137,670,-221,-419,152,2024-01-24 14:29:26,0.0
5366,-1124,28,31,70,-1,2024-01-24 14:29:26,0.0
5519,-292,1419,295,-214,645,2024-01-24 14:29:26,0.0
4829,-633,-722,42,-289,498,2024-01-24 14:29:26,0.0
5341,39,-792,-215,364,378,2024-01-24 14:29:26,0.0
5179,205,-215,-812,380,-239,2024-01-24 14:29:26,0.0
3088,-1062,437,-867,35,-261,2024-01-24 14:29:26,0.0
3012,-973,355,-225,-130,-519,2024-01-24 14:29:26,0.0
3062,244,675,-60,-241,-546,2024-01-24 14:29:26,0.0
3247,312,720,-61,54,-108,2024-01-24 14:29:26,0.0
4966,-260,501,-7,-95,230,2024-01-24 14:29:26,0.0
5598,143,1365,-336,395,-321,2024-01-24 14:29:26,0.0
6028,-326,-431,-488,-470,-386,2024-01-24 14:29:27,0.0
5199,-41,-1531,-49,813,-319,2024-01-24 14:29:27,0.0
4500,-1409,-234,671,-356,218,2024-01-24 14:29:27,0.0
4839,1277,-457,182,303,174,2024-01-24 14:29:27,0.0
1910,94,707,-252,90,563,2024-01-24 14:29:27,0.0
2829,-967,693,-379,-614,414,2024-01-24 14:29:27,0.0
3702,-834,977,24,126,107,2024-01-24 14:29:27,0.0
3934,-495,90,180,37,139,2024-01-24 14:29:27,0.0
5837,-1214,1376,425,185,199,2024-01-24 14:29:27,0.0
4913,720,1352,75,108,318,2024-01-24 14:29:27,0.0
5112,-516,-1394,-314,-475,654,2024-01-24 14:29:27,0.0
5586,-557,-233,-242,396,134,2024-01-24 14:29:27,0.0
4294,-130,131,-938,-37,-492,2024-01-24 14:29:27,0.0
3645,-1463,-180,-504,187,-531,2024-01-24 14:29:27,0.0
2409,-210,229,101,75,-410,2024-01-24 14:29:27,0.0
3168,990,910,-222,-357,-294,2024-01-24 14:29:27,0.0
4026,-246,863,-263,-16,-6,2024-01-24 14:29:27,0.0
4396,-568,887,-26,41,125,2024-01-24 14:29:28,
5306,-48,1630,-255,308,-377,2024-01-24 14:29:28,0.0
5853,311,-145,-111,-468,-384,2024-01-24 14:29:28,0.0
5070,44,-1826,-115,688,-449,2024-01-24 14:29:28,0.0
4934,-1927,21,803,-209,180,2024-01-24 14:29:28,0.0
4738,1139,188,521,310,232,2024-01-24 14:29:28,0.0
2660,776,294,-344,-525,479,2024-01-24 14:29:28,0.0
2881,-499,489,-709,-621,340,2024-01-24 14:29:28,0.0
4010,-955,708,-486,99,99,2024-01-24 14:29:28,0.0
3235,-724,780,-217,399,99,2024-01-24 14:29:28,0.0
4931,-295,446,-117,-218,-80,2024-01-24 14:29:28,0.0
5539,136,1202,261,852,544,2024-01-24 14:29:28,0.0
5219,-1279,-592,29,-157,444,2024-01-24 14:29:28,0.0
4584,-123,-540,-134,-167,402,2024-01-24 14:29:28,0.0
5563,327,-362,-882,304,-484,2024-01-24 14:29:28,0.0
3974,-1097,55,-733,339,-419,2024-01-24 14:29:28,0.0
2543,-973,354,-177,226,-462,2024-01-24 14:29:28,0.0
3186,257,1048,150,-75,-476,2024-01-24 14:29:28,0.0
3216,229,932,-32,-392,-99,2024-01-24 14:29:29,0.0
4857,-417,773,246,-65,46,2024-01-24 14:29:29,0.0
5249,91,1202,-28,429,-63,2024-01-24 14:29:29,0.0
5044,-263,1549,163,-137,-161,2024-01-24 14:29:29,0.0
5396,-201,-1301,215,-13,-485,2024-01-24 14:29:29,0.0
4671,-1223,-274,776,-153,50,2024-01-24 14:29:29,0.0
4950,84,-167,880,372,78,2024-01-24 14:29:29,0.0
2914,1001,308,158,189,448,2024-01-24 14:29:29,0.0
2553,190,426,-461,-225,509,2024-01-24 14:29:29,0.0
3987,-1592,996,-388,-254,172,2024-01-24 14:29:29,0.0
3394,-643,1084,-148,-121,150,2024-01-24 14:29:29,0.0
3593,-579,728,-89,135,-119,2024-01-24 14:29:29,0.0
5337,-1155,1747,435,-129,249,2024-01-24 14:29:29,0.0
5984,-203,970,472,-106,353,2024-01-24 14:29:29,0.0
4917,-1023,-729,232,-423,1049,2024-01-24 14:29:29,0.0
4768,232,-820,30,-265,25,2024-01-24 14:29:29,0.0
4702,-318,-207,-823,483,-241,2024-01-24 14:29:29,0.0
2938,-1388,275,-451,59,-418,2024-01-24 14:29:29,0.0
3534,-1059,245,246,-161,-481,2024-01-24 14:29:30,0.0
3141,589,839,413,-269,-296,2024-01-24 14:29:30,0.0
2890,115,762,264,-328,-62,2024-01-24 14:29:30,0.0
4520,-122,623,180,81,-61,2024-01-24 14:29:30,0.0
4813,-72,1112,12,270,-21,2024-01-24 14:29:30,0.0
5279,-781,1496,174,117,-153,2024-01-24 14:29:30,0.0
6406,840,-1467,-253,-628,-433,2024-01-24 14:29:30,0.0
3979,-1382,-505,261,226,110,2024-01-24 14:29:30,0.0
4919,-322,-267,699,123,-25,2024-01-24 14:29:30,0.0
3316,979,133,-90,186,377,2024-01-24 14:29:30,0.0
3308,130,32,-608,81,309,2024-01-24 14:29:30,0.0
3394,-1100,1078,-467,-3,275,2024-01-24 14:29:30,0.0
3151,-272,801,-353,-122,320,2024-01-24 14:29:30,0.0
3486,-813,937,-331,239,-81,2024-01-24 14:29:30,0.0
5683,-1275,1088,82,45,-1,2024-01-24 14:29:30,0.0
5288,-112,2058,217,355,532,2024-01-24 14:29:30,0.0
5678,-1144,-1890,-186,-481,778,2024-01-24 14:29:31,0.0
4456,43,-687,-179,195,23,2024-01-24 14:29:31,0.0
5355,-160,-182,-809,288,-275,2024-01-24 14:29:31,0.0
2929,-1408,450,-424,495,-515,2024-01-24 14:29:31,0.0
2835,-966,470,347,-365,-477,2024-01-24 14:29:31,0.0
3697,322,670,629,-517,-263,2024-01-24 14:29:31,0.0
3205,3,470,486,-281,-86,2024-01-24 14:29:31,0.0
4335,-334,545,715,3,59,2024-01-24 14:29:31,0.0
4592,146,1061,481,280,5,2024-01-24 14:29:31,0.0
4582,-276,1745,239,-129,-316,2024-01-24 14:29:31,0.0
5835,-403,-553,353,-796,-427,2024-01-24 14:29:31,0.0
4768,-179,-2043,287,501,-311,2024-01-24 14:29:31,0.0
4580,-2275,-37,1267,-64,20,2024-01-24 14:29:31,0.0
5709,717,-237,1240,305,-74,2024-01-24 14:29:31,0.0
2760,1202,436,436,-81,393,2024-01-24 14:29:31,0.0
3630,-467,366,79,-379,377,2024-01-24 14:29:31,0.0
3679,-767,745,385,156,313,2024-01-24 14:29:31,0.0
3459,-296,697,269,-67,231,2024-01-24 14:29:31,0.0
3427,-923,952,296,-27,-141,2024-01-24 14:29:31,0.0
5097,-256,616,661,-141,-11,2024-01-24 14:29:32,0.0
5301,-181,1334,503,139,176,2024-01-24 14:29:32,0.0
5763,-1619,-1251,196,-361,652,2024-01-24 14:29:32,0.0
5066,-1429,-884,1120,88,473,2024-01-24 14:29:32,0.0
4507,43,-187,659,458,-294,2024-01-24 14:29:32,0.0
3714,-630,315,1005,275,-185,2024-01-24 14:29:32,0.0
3686,-1685,-44,1735,-387,-1,2024-01-24 14:29:32,0.0
4128,-131,-44,2226,-195,-318,2024-01-24 14:29:32,0.0
4074,274,-63,1974,-59,26,2024-01-24 14:29:32,0.0
4037,-154,160,1954,-107,107,2024-01-24 14:29:32,0.0
4173,-340,105,1966,-79,372,2024-01-24 14:29:32,0.0
4407,-89,50,1970,29,324,2024-01-24 14:29:32,0.0
4092,-332,562,2024,-98,391,2024-01-24 14:29:32,0.0
5726,-786,-973,1710,-807,27,2024-01-24 14:29:32,0.0
3222,-626,319,1934,123,159,2024-01-24 14:29:32,0.0
4918,-1449,-122,2232,-879,370,2024-01-24 14:29:32,0.0
4890,5,-525,2095,-8,202,2024-01-24 14:29:32,0.0
3522,-720,274,2047,-281,482,2024-01-24 14:29:33,0.0
4298,-825,-11,1779,-181,199,2024-01-24 14:29:33,0.0
3999,-1133,148,1563,-157,98,2024-01-24 14:29:33,0.0
4102,-885,458,1519,24,10,2024-01-24 14:29:33,0.0
4282,-791,565,1551,-56,39,2024-01-24 14:29:33,0.0
4634,-566,766,1219,35,-67,2024-01-24 14:29:33,0.0
5552,-1870,-912,984,-170,-127,2024-01-24 14:29:33,0.0
4451,-238,-797,1060,309,130,2024-01-24 14:29:33,0.0
3781,510,-28,501,79,-330,2024-01-24 14:29:33,0.0
4933,-1149,-216,698,43,-44,2024-01-24 14:29:33,0.0
3791,-262,212,827,-53,-403,2024-01-24 14:29:33,0.0
4339,46,495,655,-26,-564,2024-01-24 14:29:33,0.0
3215,346,805,465,210,-249,2024-01-24 14:29:33,
3935,284,1023,258,-320,-178,2024-01-24 14:29:33,0.0
4601,-261,575,141,-28,29,2024-01-24 14:29:33,0.0
4901,-165,1349,502,360,147,2024-01-24 14:29:33,0.0
5103,-6,182,687,178,211,2024-01-24 14:29:33,0.0
6053,329,-1974,504,108,-258,2024-01-24 14:29:33,0.0
3979,-1322,295,940,231,282,2024-01-24 14:29:34,0.0
5190,443,-169,824,-172,131,2024-01-24 14:29:34,0.0
3208,855,161,259,403,436,2024-01-24 14:29:34,0.0
2113,-536,804,7,-107,491,2024-01-24 14:29:34,0.0
3955,-1230,1166,313,-283,302,2024-01-24 14:29:34,0.0
3673,-435,1037,209,-315,234,2024-01-24 14:29:34,0.0
3828,-881,672,220,162,44,2024-01-24 14:29:34,0.0
4690,-1335,1467,746,-269,446,2024-01-24 14:29:34,0.0
4822,1291,1398,193,145,121,2024-01-24 14:29:34,0.0
6432,-2031,-1266,-94,-425,680,2024-01-24 14:29:34,0.0
4719,-4,-911,-294,-149,244,2024-01-24 14:29:34,0.0
5905,218,-558,-1069,277,-393,2024-01-24 14:29:34,0.0
4370,-1650,47,-877,370,-416,2024-01-24 14:29:34,0.0
2950,-910,216,59,-97,-430,2024-01-24 14:29:34,0.0
2527,-108,225,362,-154,-325,2024-01-24 14:29:34,0.0
3025,267,223,431,-245,100,2024-01-24 14:29:34,0.0
2881,444,741,278,32,131,2024-01-24 14:29:34,0.0
4719,559,204,-314,-125,96,2024-01-24 14:29:34,0.0
6470,-2056,2353,-160,389,-242,2024-01-24 14:29:35,0.0
4910,83,162,439,-1081,-159,2024-01-24 14:29:35,0.0
6797,646,-2505,-23,568,-497,2024-01-24 14:29:35,0.0
4348,-1950,-176,670,55,0,2024-01-24 14:29:35,0.0
5970,663,-453,514,378,181,2024-01-24 14:29:35,0.0
2641,516,94,-63,349,389,2024-01-24 14:29:35,0.0
1891,-404,704,-298,-122,522,2024-01-24 14:29:37,0.0
3704,-866,853,-54,122,322,2024-01-24 14:29:37,0.0
2949,-59,909,-224,211,10,2024-01-24 14:29:37,0.0
3904,-715,991,-223,203,-139,2024-01-24 14:29:37,0.0
5410,-1242,1931,283,74,616,2024-01-24 14:29:37,0.0
6058,215,1671,77,-236,341,2024-01-24 14:29:37,0.0
2606,-1620,743,-339,-8,-896,2024-01-24 14:29:37,0.0
3416,187,218,483,-23,-371,2024-01-24 14:29:37,0.0
2990,535,1005,200,48,52,2024-01-24 14:29:37,0.0
3286,-1257,1153,-339,-255,310,2024-01-24 14:29:37,0.0
3413,-418,804,-156,-146,52,2024-01-24 14:29:37,0.0
4218,-582,507,-155,83,-100,2024-01-24 14:29:37,0.0
6145,-1022,1790,400,160,574,2024-01-24 14:29:37,0.0
4884,-936,-565,229,-477,240,2024-01-24 14:29:37,0.0
4985,-644,-1424,33,743,608,2024-01-24 14:29:37,0.0
5253,928,35,-555,487,-416,2024-01-24 14:29:38,0.0
4202,-1381,84,-895,517,-495,2024-01-24 14:29:38,0.0
2539,-1345,513,-108,10,-430,2024-01-24 14:29:38,0.0
3095,315,669,412,-126,-395,2024-01-24 14:29:38,0.0
3210,811,906,-29,-158,-207,2024-01-24 14:29:38,0.0
3964,-315,839,19,-347,116,2024-01-24 14:29:38,0.0
5230,147,824,-202,19,53,2024-01-24 14:29:38,0.0
4797,-1272,2400,64,181,-307,2024-01-24 14:29:38,0.0
6291,591,-378,88,-1120,-382,2024-01-24 14:29:38,0.0
4516,-166,-1764,-8,165,-33,2024-01-24 14:29:38,0.0
5160,-1767,-3,595,-45,17,2024-01-24 14:29:38,0.0
4367,1196,55,313,500,109,2024-01-24 14:29:38,0.0
2942,602,-129,-438,-318,394,2024-01-24 14:29:38,0.0
3303,-966,771,-717,-240,170,2024-01-24 14:29:38,0.0
3214,-955,918,-274,-184,292,2024-01-24 14:29:38,0.0
3972,-479,556,-205,20,-143,2024-01-24 14:29:38,0.0
4934,-1425,866,279,-147,118,2024-01-24 14:29:38,0.0
5619,135,1631,386,479,352,2024-01-24 14:29:39,0.0
6388,-1224,-1398,182,-574,873,2024-01-24 14:29:39,0.0
4139,-6,-769,194,260,168,2024-01-24 14:29:39,0.0
5086,139,-170,-659,124,-325,2024-01-24 14:29:39,0.0
3101,-1086,131,-596,388,-412,2024-01-24 14:29:39,0.0
2799,-899,408,191,-177,-358,2024-01-24 14:29:39,0.0
3256,642,793,222,-220,-363,2024-01-24 14:29:39,0.0
2835,566,753,-141,-298,-70,2024-01-24 14:29:39,0.0
4726,-453,587,-26,47,178,2024-01-24 14:29:39,0.0
5336,228,1434,-285,209,-90,2024-01-24 14:29:39,0.0
5114,-1026,1194,-30,235,-262,2024-01-24 14:29:39,0.0
6816,822,-2199,-183,-674,-463,2024-01-24 14:29:39,0.0
3881,-1627,94,276,376,145,2024-01-24 14:29:39,0.0
5320,46,-443,657,-151,48,2024-01-24 14:29:39,0.0
3254,1141,99,-53,399,246,2024-01-24 14:29:39,0.0
2531,-313,192,-506,-59,436,2024-01-24 14:29:39,0.0
3460,-1265,1114,-232,-37,175,2024-01-24 14:29:39,0.0
3412,-376,728,-93,-151,97,2024-01-24 14:29:39,0.0
3778,-724,740,-5,-5,-72,2024-01-24 14:29:40,0.0
5945,-741,2102,538,-137,661,2024-01-24 14:29:40,0.0
5222,-450,-110,139,-574,5,2024-01-24 14:29:40,0.0
5164,-1415,-2094,-62,295,847,2024-01-24 14:29:40,0.0
5605,538,-210,-357,220,-173,2024-01-24 14:29:40,0.0
4679,-922,2,-845,485,-500,2024-01-24 14:29:40,0.0
2330,-1503,654,-227,-11,-309,2024-01-24 14:29:40,0.0
2902,-590,585,559,-330,-477,2024-01-24 14:29:40,0.0
3730,1189,891,233,-216,-218,2024-01-24 14:29:40,0.0
3828,296,705,-83,-54,-50,2024-01-24 14:29:40,0.0
5105,-712,885,-160,-10,-73,2024-01-24 14:29:40,0.0
5037,-603,1711,13,208,-98,2024-01-24 14:29:40,0.0
7421,162,-1918,-12,-1013,-560,2024-01-24 14:29:40,0.0
4096,-891,-665,44,799,-100,2024-01-24 14:29:40,0.0
4735,-855,57,784,-447,89,2024-01-24 14:29:40,0.0
3978,1286,-275,32,494,158,2024-01-24 14:29:40,0.0
2380,235,273,-432,-91,417,2024-01-24 14:29:40,0.0
3062,-1376,1371,-363,-283,259,2024-01-24 14:29:40,0.0
3392,-530,937,-79,-233,224,2024-01-24 14:29:41,0.0
4243,-233,457,-166,253,-129,2024-01-24 14:29:41,0.0
5417,-1742,1469,349,-65,320,2024-01-24 14:29:41,
