acceleration_x,acceleration_y,acceleration_z,gyroscope_x,gyroscope_y,gyroscope_z,timestamp,label
4268,-503,567,-44,-21,12,2024-01-29 16:47:43,0.0
4312,-484,555,-25,-20,14,2024-01-29 16:47:43,0.0
4256,-434,576,-44,-22,10,2024-01-29 16:47:43,0.0
4323,-483,598,-58,-35,14,2024-01-29 16:47:43,0.0
4328,-467,539,-39,-45,10,2024-01-29 16:47:43,0.0
4313,-488,561,-32,-19,16,2024-01-29 16:47:43,0.0
4250,-449,529,-33,-46,12,2024-01-29 16:47:43,0.0
4249,-481,583,-34,-16,16,2024-01-29 16:47:43,0.0
4384,-490,526,-14,-2,24,2024-01-29 16:47:43,0.0
4278,-542,684,-3,-23,25,2024-01-29 16:47:43,0.0
4241,-456,549,28,-64,21,2024-01-29 16:47:43,0.0
4259,-462,566,-26,4,24,2024-01-29 16:47:43,0.0
4313,-487,604,-24,14,12,2024-01-29 16:47:44,0.0
4285,-486,613,-35,-17,21,2024-01-29 16:47:44,0.0
4269,-501,589,7,45,27,2024-01-29 16:47:44,0.0
4316,-510,567,-8,-34,24,2024-01-29 16:47:44,0.0
4270,-500,624,-9,3,18,2024-01-29 16:47:44,0.0
4309,-471,634,-38,-13,1,2024-01-29 16:47:44,0.0
4222,-498,630,-58,3,3,2024-01-29 16:47:44,0.0
4298,-513,629,-66,-15,11,2024-01-29 16:47:44,0.0
4258,-482,620,-39,-29,15,2024-01-29 16:47:44,0.0
4240,-528,579,-26,-36,16,2024-01-29 16:47:44,0.0
4276,-486,666,-56,-25,15,2024-01-29 16:47:44,0.0
4269,-419,610,-54,-42,10,2024-01-29 16:47:44,0.0
4289,-538,616,-111,-49,3,2024-01-29 16:47:44,0.0
4252,-521,594,-60,-79,9,2024-01-29 16:47:44,0.0
4265,-513,597,-58,-104,5,2024-01-29 16:47:44,0.0
4243,-485,616,-27,-102,-2,2024-01-29 16:47:44,0.0
4303,-571,549,-18,-121,25,2024-01-29 16:47:44,0.0
4214,-414,567,-48,-127,-14,2024-01-29 16:47:44,0.0
4145,-545,561,-6,-120,17,2024-01-29 16:47:45,0.0
4193,-283,449,-11,-239,35,2024-01-29 16:47:45,0.0
4571,-696,527,208,-59,135,2024-01-29 16:47:45,0.0
4594,-639,704,302,-58,104,2024-01-29 16:47:45,0.0
4404,-419,354,274,-49,65,2024-01-29 16:47:45,0.0
3934,-245,391,25,-295,56,2024-01-29 16:47:45,0.0
4292,-517,192,-80,-167,-3,2024-01-29 16:47:45,0.0
4129,-784,312,-28,-144,79,2024-01-29 16:47:45,0.0
4559,-619,252,54,-33,32,2024-01-29 16:47:45,0.0
4345,-551,390,-64,-19,23,2024-01-29 16:47:45,0.0
4355,-669,272,-14,11,26,2024-01-29 16:47:45,0.0
4216,-480,241,-120,-6,-31,2024-01-29 16:47:45,0.0
4318,-524,319,-144,37,-23,2024-01-29 16:47:45,0.0
4296,-727,351,-109,98,-14,2024-01-29 16:47:45,0.0
4299,-503,338,-104,73,-20,2024-01-29 16:47:45,0.0
4280,-648,362,-103,61,-16,2024-01-29 16:47:45,0.0
4254,-528,414,-111,54,-21,2024-01-29 16:47:45,0.0
4341,-578,426,-128,56,-23,2024-01-29 16:47:46,0.0
4249,-557,437,-99,20,-16,2024-01-29 16:47:46,0.0
4297,-555,410,-108,-31,-19,2024-01-29 16:47:46,0.0
4352,-546,468,-98,20,-7,2024-01-29 16:47:46,0.0
4330,-606,479,-73,141,-14,2024-01-29 16:47:46,0.0
4326,-506,470,-88,-13,-15,2024-01-29 16:47:46,0.0
4342,-558,450,-90,192,-23,2024-01-29 16:47:46,0.0
4278,-562,645,-32,213,-11,2024-01-29 16:47:46,0.0
4167,-507,729,-74,13,-23,2024-01-29 16:47:46,0.0
4328,-598,555,-26,-62,-9,2024-01-29 16:47:46,0.0
4192,-467,611,-16,-11,-5,2024-01-29 16:47:46,0.0
4394,-547,592,1,-46,-6,2024-01-29 16:47:46,0.0
4205,-408,657,-49,-15,-21,2024-01-29 16:47:46,0.0
4267,-493,597,-76,58,-35,2024-01-29 16:47:46,0.0
4215,-482,699,-93,-1,-36,2024-01-29 16:47:46,0.0
4440,-516,656,-53,43,-9,2024-01-29 16:47:46,0.0
4065,-408,681,-30,34,-1,2024-01-29 16:47:46,0.0
4272,-430,724,-38,6,2,2024-01-29 16:47:46,0.0
4279,-491,663,-8,52,-31,2024-01-29 16:47:47,0.0
4288,-370,735,-23,0,-20,2024-01-29 16:47:47,0.0
4193,-407,797,-26,30,-34,2024-01-29 16:47:47,0.0
4281,-410,769,-41,-84,-14,2024-01-29 16:47:47,0.0
4271,-386,769,-44,-75,-25,2024-01-29 16:47:47,0.0
4240,-431,662,-69,-55,-9,2024-01-29 16:47:47,0.0
4322,-369,656,-57,-4,2,2024-01-29 16:47:47,0.0
4231,-384,760,-46,6,-5,2024-01-29 16:47:47,0.0
4283,-401,762,-51,-37,-4,2024-01-29 16:47:47,0.0
4232,-370,748,-23,-85,7,2024-01-29 16:47:47,0.0
4266,-414,689,-27,-39,13,2024-01-29 16:47:47,0.0
4267,-357,653,-36,1,10,2024-01-29 16:47:47,0.0
4304,-421,742,-38,-18,25,2024-01-29 16:47:47,0.0
4247,-364,722,-37,-61,4,2024-01-29 16:47:47,0.0
4258,-372,723,-70,-45,23,2024-01-29 16:47:47,0.0
4275,-387,721,-45,-49,12,2024-01-29 16:47:47,0.0
4325,-425,676,-46,8,21,2024-01-29 16:47:47,0.0
4233,-367,729,-14,-19,16,2024-01-29 16:47:48,0.0
4275,-420,745,-54,-65,31,2024-01-29 16:47:48,0.0
4328,-441,666,-48,-14,21,2024-01-29 16:47:48,0.0
4309,-468,688,-45,-24,21,2024-01-29 16:47:48,0.0
4194,-395,681,-16,-37,27,2024-01-29 16:47:48,0.0
4267,-462,716,-62,-6,25,2024-01-29 16:47:48,0.0
4367,-461,686,-40,-24,20,2024-01-29 16:47:48,0.0
4289,-444,767,-58,-46,20,2024-01-29 16:47:48,0.0
4246,-481,647,-41,3,16,2024-01-29 16:47:48,0.0
4269,-468,742,-28,-29,25,2024-01-29 16:47:48,0.0
4248,-481,656,-10,-61,31,2024-01-29 16:47:48,0.0
4285,-490,740,4,-63,25,2024-01-29 16:47:48,0.0
4261,-379,650,-23,-97,44,2024-01-29 16:47:48,0.0
4271,-542,633,-23,30,25,2024-01-29 16:47:48,0.0
4333,-478,670,-41,-10,13,2024-01-29 16:47:48,0.0
4275,-445,618,-54,24,5,2024-01-29 16:47:48,0.0
4899,-463,442,-100,270,-44,2024-01-29 16:47:48,0.0
3522,-313,1268,-111,66,26,2024-01-29 16:47:48,
4382,-649,656,-88,-159,-19,2024-01-29 16:47:49,0.0
4192,-368,698,-52,-24,-8,2024-01-29 16:47:49,0.0
4299,-514,876,-37,-51,2,2024-01-29 16:47:49,0.0
4193,-466,789,-15,-25,-3,2024-01-29 16:47:49,0.0
4280,-492,753,-23,-27,7,2024-01-29 16:47:49,0.0
4259,-462,726,-21,23,-3,2024-01-29 16:47:49,0.0
4269,-441,811,-39,-47,5,2024-01-29 16:47:49,0.0
4250,-419,760,-56,-20,-5,2024-01-29 16:47:49,0.0
4240,-446,788,-55,-31,-20,2024-01-29 16:47:49,0.0
4261,-397,895,-76,-68,-3,2024-01-29 16:47:49,0.0
4269,-527,818,-57,-68,-16,2024-01-29 16:47:49,0.0
4275,-380,722,-72,-20,-18,2024-01-29 16:47:49,0.0
4150,-452,877,-65,-23,3,2024-01-29 16:47:49,0.0
4320,-426,785,-54,-32,-2,2024-01-29 16:47:49,0.0
4282,-418,758,-68,-54,0,2024-01-29 16:47:49,0.0
4163,-391,818,-68,-77,-1,2024-01-29 16:47:49,0.0
4293,-471,847,-43,-114,4,2024-01-29 16:47:49,0.0
4282,-389,770,-55,-100,-4,2024-01-29 16:47:50,0.0
4267,-439,747,-33,-61,13,2024-01-29 16:47:50,0.0
4241,-418,721,-18,-65,10,2024-01-29 16:47:50,0.0
4281,-401,714,-21,-37,20,2024-01-29 16:47:50,0.0
4287,-313,768,-39,-109,1,2024-01-29 16:47:50,0.0
4279,-407,757,-56,-131,12,2024-01-29 16:47:50,0.0
4300,-420,720,-45,-52,1,2024-01-29 16:47:50,0.0
4340,-436,602,-16,23,24,2024-01-29 16:47:50,0.0
4183,-409,759,-6,6,21,2024-01-29 16:47:50,0.0
4349,-426,679,-26,-42,35,2024-01-29 16:47:50,0.0
4232,-487,684,2,-72,36,2024-01-29 16:47:50,0.0
4307,-405,651,5,-12,39,2024-01-29 16:47:50,0.0
4219,-438,666,11,25,49,2024-01-29 16:47:50,0.0
4303,-435,706,-26,-37,40,2024-01-29 16:47:50,0.0
4261,-459,686,-7,-22,29,2024-01-29 16:47:50,0.0
4269,-456,738,-17,-39,40,2024-01-29 16:47:50,0.0
4306,-524,697,-15,-21,26,2024-01-29 16:47:50,0.0
4278,-464,742,-30,-48,28,2024-01-29 16:47:50,0.0
4218,-454,616,-90,-35,36,2024-01-29 16:47:51,0.0
4348,-592,886,-105,-115,-22,2024-01-29 16:47:51,0.0
4317,-410,656,-49,-22,21,2024-01-29 16:47:51,0.0
4374,-522,781,-53,56,-8,2024-01-29 16:47:51,0.0
4217,-464,664,-55,18,13,2024-01-29 16:47:51,0.0
4229,-513,780,-32,17,1,2024-01-29 16:47:51,0.0
4293,-470,722,9,-22,1,2024-01-29 16:47:51,0.0
4268,-458,781,26,11,-2,2024-01-29 16:47:51,0.0
4225,-406,688,-34,-10,-33,2024-01-29 16:47:51,0.0
4330,-481,745,-54,-7,-74,2024-01-29 16:47:51,0.0
4213,-455,735,-59,-21,-99,2024-01-29 16:47:51,0.0
4263,-409,643,-67,-36,-68,2024-01-29 16:47:51,0.0
4273,-347,625,-103,46,-47,2024-01-29 16:47:51,0.0
4115,-518,899,-34,-41,49,2024-01-29 16:47:51,0.0
4383,-442,644,14,39,35,2024-01-29 16:47:51,0.0
4080,-494,811,68,122,146,2024-01-29 16:47:51,0.0
4223,-473,922,140,80,95,2024-01-29 16:47:51,0.0
4351,-489,878,173,76,106,2024-01-29 16:47:52,0.0
4173,-334,871,134,86,72,2024-01-29 16:47:52,0.0
4225,-385,1044,23,85,42,2024-01-29 16:47:52,0.0
4224,-325,1007,7,32,12,2024-01-29 16:47:52,0.0
4279,-411,913,40,-15,6,2024-01-29 16:47:52,0.0
4192,-308,1028,-66,-14,-15,2024-01-29 16:47:52,0.0
4277,-320,994,-69,-13,-21,2024-01-29 16:47:52,0.0
4280,-393,1031,-127,-45,-1,2024-01-29 16:47:52,0.0
4302,-411,995,-54,46,0,2024-01-29 16:47:52,0.0
4320,-346,1101,-64,-28,-2,2024-01-29 16:47:52,0.0
4268,-456,943,-76,-11,-19,2024-01-29 16:47:52,0.0
4095,-486,980,-27,-111,10,2024-01-29 16:47:52,0.0
4073,-497,948,-8,-168,-2,2024-01-29 16:47:52,0.0
4172,-485,881,35,-233,16,2024-01-29 16:47:52,0.0
4305,-384,785,-7,-94,29,2024-01-29 16:47:52,0.0
4264,-435,820,-15,-80,36,2024-01-29 16:47:52,0.0
4246,-326,796,-83,-47,-5,2024-01-29 16:47:52,0.0
4260,-435,729,-143,-9,14,2024-01-29 16:47:52,0.0
4168,-450,776,-121,-57,-25,2024-01-29 16:47:53,0.0
4246,-508,896,-77,-57,-24,2024-01-29 16:47:53,0.0
4314,-433,870,-30,-65,-56,2024-01-29 16:47:53,0.0
4218,-306,878,-86,-59,-25,2024-01-29 16:47:53,0.0
4239,-538,781,-96,-4,-83,2024-01-29 16:47:53,0.0
4202,-424,841,-72,58,-62,2024-01-29 16:47:53,0.0
4176,-388,896,-21,-7,-71,2024-01-29 16:47:53,0.0
4320,-503,893,35,-18,-32,2024-01-29 16:47:53,0.0
4301,-349,801,104,23,3,2024-01-29 16:47:53,0.0
4235,-287,914,47,46,-13,2024-01-29 16:47:53,0.0
4309,-346,911,-41,58,7,2024-01-29 16:47:53,0.0
4344,-334,1018,-38,8,33,2024-01-29 16:47:53,0.0
4242,-340,996,-107,10,32,2024-01-29 16:47:53,0.0
4137,-341,921,-54,-21,57,2024-01-29 16:47:53,0.0
4212,-330,904,-86,-126,69,2024-01-29 16:47:53,0.0
4210,-353,886,-78,-136,88,2024-01-29 16:47:53,0.0
4264,-317,897,-22,-149,98,2024-01-29 16:47:53,0.0
4233,-300,854,-102,-148,80,2024-01-29 16:47:54,0.0
4227,-367,806,-122,-162,65,2024-01-29 16:47:54,0.0
4269,-461,725,-146,-79,43,2024-01-29 16:47:54,0.0
4202,-438,767,-146,-57,6,2024-01-29 16:47:54,0.0
4358,-513,724,-112,-72,0,2024-01-29 16:47:54,0.0
4341,-431,676,-38,-151,35,2024-01-29 16:47:54,0.0
4254,-403,801,-50,-81,19,2024-01-29 16:47:54,0.0
4246,-422,639,-33,-73,13,2024-01-29 16:47:54,0.0
4270,-383,691,-62,-3,21,2024-01-29 16:47:54,0.0
4247,-496,692,-71,-38,13,2024-01-29 16:47:54,0.0
4227,-509,821,-82,-48,10,2024-01-29 16:47:54,0.0
4360,-565,695,-52,-94,1,2024-01-29 16:47:54,0.0
4181,-512,662,-46,-39,14,2024-01-29 16:47:54,
4248,-513,583,5,-67,-2,2024-01-29 16:47:54,0.0
4238,-437,707,-13,-108,19,2024-01-29 16:47:54,0.0
4389,-471,633,-25,-57,23,2024-01-29 16:47:54,0.0
4272,-487,569,-59,-17,16,2024-01-29 16:47:54,0.0
4328,-541,631,-32,-8,19,2024-01-29 16:47:54,0.0
4112,-467,615,-34,-71,7,2024-01-29 16:47:55,0.0
4373,-513,645,-77,-79,-5,2024-01-29 16:47:55,0.0
4290,-452,541,-57,-23,-9,2024-01-29 16:47:55,0.0
4317,-385,527,-119,-75,-34,2024-01-29 16:47:55,0.0
4173,-315,613,-163,-29,-23,2024-01-29 16:47:55,0.0
4565,-436,583,-204,-131,-9,2024-01-29 16:47:55,0.0
4289,-439,480,-42,-18,54,2024-01-29 16:47:55,0.0
4421,-74,426,-352,-182,-45,2024-01-29 16:47:55,0.0
4201,-211,316,-614,-104,-124,2024-01-29 16:47:55,0.0
4222,-470,-55,-705,-126,-167,2024-01-29 16:47:55,0.0
3586,-731,163,-1029,-175,-346,2024-01-29 16:47:55,0.0
4615,-373,229,-1255,142,-469,2024-01-29 16:47:55,0.0
4843,-1212,271,-1409,266,-601,2024-01-29 16:47:55,0.0
4975,-1130,416,-1029,280,-432,2024-01-29 16:47:55,0.0
4113,-524,425,-1065,394,-502,2024-01-29 16:47:55,0.0
4388,-828,310,-902,436,-544,2024-01-29 16:47:55,0.0
3560,-984,580,-476,402,-527,2024-01-29 16:47:56,0.0
4107,-747,356,-169,323,-538,2024-01-29 16:47:56,0.0
2978,-773,164,278,460,-495,2024-01-29 16:47:56,0.0
3509,-982,331,242,374,-646,2024-01-29 16:47:56,0.0
2822,106,396,359,490,-746,2024-01-29 16:47:56,0.0
2766,-888,354,556,357,-647,2024-01-29 16:47:56,0.0
2346,32,57,580,258,-913,2024-01-29 16:47:56,0.0
2083,479,598,211,227,-840,2024-01-29 16:47:56,0.0
1039,132,300,153,-342,-825,2024-01-29 16:47:56,0.0
1776,-69,385,74,286,-1090,2024-01-29 16:47:56,0.0
157,241,-180,88,-366,-937,2024-01-29 16:47:56,0.0
2470,4142,3248,-1769,322,-1909,2024-01-29 16:47:56,0.0
12767,15085,10497,-2590,2549,-3355,2024-01-29 16:47:56,0.0
2671,2403,5387,-1338,2857,-3895,2024-01-29 16:47:56,0.0
-6375,5460,3216,-863,503,-1284,2024-01-29 16:47:56,0.0
2425,1719,2763,-604,1118,-508,2024-01-29 16:47:56,0.0
-1341,4658,1455,-1066,809,-460,2024-01-29 16:47:56,0.0
-2155,338,1985,-1242,354,-69,2024-01-29 16:47:56,0.0
-1008,1788,2635,-1461,59,-390,2024-01-29 16:47:57,0.0
-1086,2121,2775,-1840,24,38,2024-01-29 16:47:57,0.0
480,1222,4054,-1206,-485,15,2024-01-29 16:47:57,0.0
496,998,4881,-564,-619,-27,2024-01-29 16:47:57,0.0
768,1480,4370,-517,-567,-29,2024-01-29 16:47:57,0.0
157,360,4095,-293,-480,54,2024-01-29 16:47:57,0.0
476,1283,3838,-204,-288,72,2024-01-29 16:47:57,0.0
826,536,3955,-114,-363,91,2024-01-29 16:47:57,0.0
1129,1340,4174,55,42,129,2024-01-29 16:47:57,0.0
712,1122,3639,105,26,25,2024-01-29 16:47:57,0.0
904,1626,4407,130,79,83,2024-01-29 16:47:57,0.0
503,1129,3611,107,-67,85,2024-01-29 16:47:57,0.0
785,1382,4116,207,-28,118,2024-01-29 16:47:57,0.0
795,922,4039,321,83,77,2024-01-29 16:47:58,0.0
219,1603,4052,478,308,232,2024-01-29 16:47:59,0.0
694,1802,3491,104,251,126,2024-01-29 16:47:59,0.0
322,1666,3689,24,165,183,2024-01-29 16:47:59,0.0
516,2531,3819,-193,-39,65,2024-01-29 16:47:59,0.0
637,1857,3531,-58,-49,-100,2024-01-29 16:47:59,0.0
840,1828,3729,-131,-72,-58,2024-01-29 16:47:59,0.0
526,1695,3954,-223,-40,-48,2024-01-29 16:47:59,0.0
346,1231,3966,-138,-17,-58,2024-01-29 16:47:59,0.0
342,1210,3914,-109,-80,-54,2024-01-29 16:47:59,0.0
571,1538,3876,-40,-34,12,2024-01-29 16:47:59,0.0
536,1525,3877,-33,-58,8,2024-01-29 16:47:59,0.0
543,1558,3905,-60,-57,12,2024-01-29 16:47:59,0.0
499,1539,3902,-39,-75,5,2024-01-29 16:47:59,0.0
520,1549,3862,-35,-13,10,2024-01-29 16:47:59,0.0
550,1554,3875,-38,-53,16,2024-01-29 16:47:59,0.0
530,1521,3912,-44,-26,9,2024-01-29 16:47:59,0.0
562,1526,3885,-63,-39,16,2024-01-29 16:47:59,0.0
535,1530,3905,-46,-50,2,2024-01-29 16:47:59,0.0
552,1534,3938,-41,-41,16,2024-01-29 16:47:59,0.0
547,1517,3872,-35,-40,11,2024-01-29 16:47:59,0.0
564,1543,3899,-44,-36,7,2024-01-29 16:47:59,0.0
563,1529,3932,-49,-35,10,2024-01-29 16:47:59,0.0
586,1533,3881,-36,-12,8,2024-01-29 16:48:00,0.0
542,1547,3884,-44,-60,7,2024-01-29 16:48:00,0.0
585,1536,3823,-50,-11,2,2024-01-29 16:48:00,0.0
629,1580,3986,-54,-60,19,2024-01-29 16:48:00,0.0
554,1480,3889,-44,-85,0,2024-01-29 16:48:00,0.0
521,1586,3903,-40,-30,11,2024-01-29 16:48:00,0.0
554,1529,3895,-47,-36,5,2024-01-29 16:48:00,0.0
552,1551,3846,-54,-26,9,2024-01-29 16:48:00,0.0
544,1488,3877,-58,-43,12,2024-01-29 16:48:00,0.0
544,1546,3908,-45,-31,4,2024-01-29 16:48:00,0.0
563,1543,3869,-36,-24,9,2024-01-29 16:48:00,0.0
530,1492,3862,-20,-13,11,2024-01-29 16:48:00,0.0
550,1571,3898,-49,-58,8,2024-01-29 16:48:00,0.0
481,1503,3862,-25,-33,3,2024-01-29 16:48:00,0.0
593,1575,3828,-20,27,-2,2024-01-29 16:48:00,0.0
524,1503,3895,-35,-16,-9,2024-01-29 16:48:00,0.0
542,1549,3908,-42,-52,8,2024-01-29 16:48:00,0.0
541,1541,3921,-40,-38,3,2024-01-29 16:48:00,0.0
560,1503,3867,-48,-11,13,2024-01-29 16:48:01,0.0
580,1517,3854,-30,-64,8,2024-01-29 16:48:01,0.0
564,1558,3871,-47,-22,13,2024-01-29 16:48:01,0.0
538,1552,3880,-40,-26,13,2024-01-29 16:48:01,0.0
576,1550,3879,-39,-32,14,2024-01-29 16:48:01,0.0
524,1555,3889,-48,-29,3,2024-01-29 16:48:01,0.0
571,1558,3918,-51,-39,10,2024-01-29 16:48:01,
555,1533,3850,-41,-27,8,2024-01-29 16:48:01,0.0
568,1522,3921,-36,-43,4,2024-01-29 16:48:01,0.0
605,1502,3861,-40,-14,14,2024-01-29 16:48:01,0.0
613,1534,3940,-46,-75,10,2024-01-29 16:48:01,0.0
595,1540,3898,-49,-75,8,2024-01-29 16:48:01,0.0
522,1594,3903,-40,-70,11,2024-01-29 16:48:01,0.0
577,1499,3850,-46,-35,6,2024-01-29 16:48:01,0.0
531,1538,3917,-51,-49,16,2024-01-29 16:48:01,0.0
567,1518,3895,-60,-57,2,2024-01-29 16:48:01,0.0
577,1538,3877,-50,-19,4,2024-01-29 16:48:01,0.0
550,1518,3888,-47,-35,9,2024-01-29 16:48:02,0.0
557,1540,3856,-29,-7,3,2024-01-29 16:48:02,0.0
566,1489,3906,-48,-30,18,2024-01-29 16:48:02,0.0
520,1511,3829,-51,-5,8,2024-01-29 16:48:02,0.0
557,1549,3861,-25,18,3,2024-01-29 16:48:02,0.0
569,1541,3875,-41,12,6,2024-01-29 16:48:02,0.0
550,1538,3872,-52,-34,16,2024-01-29 16:48:02,0.0
586,1508,3901,-33,-27,11,2024-01-29 16:48:02,0.0
579,1504,3900,-50,-13,14,2024-01-29 16:48:02,0.0
577,1540,3873,-40,-33,9,2024-01-29 16:48:02,0.0
580,1515,3887,-44,-30,9,2024-01-29 16:48:02,0.0
552,1535,3884,-34,-31,9,2024-01-29 16:48:02,0.0
586,1553,3901,-36,-22,11,2024-01-29 16:48:02,0.0
568,1519,3888,-33,-40,13,2024-01-29 16:48:02,0.0
564,1525,3895,-39,-24,7,2024-01-29 16:48:02,0.0
567,1491,3881,-29,-45,9,2024-01-29 16:48:02,0.0
542,1543,3901,-38,-23,8,2024-01-29 16:48:02,0.0
596,1498,3856,-31,-28,9,2024-01-29 16:48:02,0.0
594,1511,3917,-35,12,8,2024-01-29 16:48:03,0.0
610,1569,3816,-27,61,11,2024-01-29 16:48:03,0.0
601,1476,3941,-37,-31,2,2024-01-29 16:48:03,0.0
583,1548,3894,-53,-42,21,2024-01-29 16:48:03,0.0
530,1534,3874,-41,-28,11,2024-01-29 16:48:03,0.0
582,1531,3877,-44,-33,6,2024-01-29 16:48:03,0.0
596,1527,3857,-46,-21,7,2024-01-29 16:48:03,0.0
549,1550,3886,-43,-47,7,2024-01-29 16:48:03,0.0
572,1559,3855,-37,-30,7,2024-01-29 16:48:03,0.0
546,1562,3889,-32,-33,13,2024-01-29 16:48:03,0.0
555,1475,3880,-43,-47,11,2024-01-29 16:48:03,0.0
528,1527,3909,-52,-47,7,2024-01-29 16:48:03,0.0
574,1544,3826,-31,-10,13,2024-01-29 16:48:03,0.0
551,1509,3912,-27,-11,3,2024-01-29 16:48:03,0.0
574,1542,3846,-47,-20,13,2024-01-29 16:48:03,0.0
577,1523,3893,-42,-20,11,2024-01-29 16:48:03,0.0
585,1498,3840,-53,-28,7,2024-01-29 16:48:03,0.0
598,1521,3857,-37,-17,8,2024-01-29 16:48:04,0.0
618,1528,3889,-40,-45,10,2024-01-29 16:48:04,0.0
576,1548,3892,-37,-29,7,2024-01-29 16:48:04,0.0
619,1513,3889,-34,-34,9,2024-01-29 16:48:04,0.0
571,1526,3887,-36,-32,13,2024-01-29 16:48:04,0.0
609,1510,3908,-45,-33,8,2024-01-29 16:48:04,0.0
572,1522,3896,-45,-27,8,2024-01-29 16:48:04,0.0
552,1529,3853,-39,-19,8,2024-01-29 16:48:04,0.0
598,1546,3869,-49,-37,14,2024-01-29 16:48:04,0.0
576,1526,3946,-52,-63,6,2024-01-29 16:48:04,0.0
541,1542,3936,-69,-34,18,2024-01-29 16:48:04,0.0
544,1540,3880,-30,-48,10,2024-01-29 16:48:04,0.0
539,1511,3916,-47,-16,8,2024-01-29 16:48:04,0.0
566,1496,3896,-51,-28,10,2024-01-29 16:48:04,0.0
573,1506,3920,-44,-36,9,2024-01-29 16:48:04,0.0
605,1460,3864,-62,-13,7,2024-01-29 16:48:04,0.0
544,1522,3876,-31,-23,-7,2024-01-29 16:48:04,0.0
572,1474,3882,-43,-9,7,2024-01-29 16:48:04,0.0
562,1536,3828,-40,-16,15,2024-01-29 16:48:05,0.0
609,1505,3933,-43,-34,10,2024-01-29 16:48:05,0.0
614,1500,3804,-45,3,8,2024-01-29 16:48:05,0.0
626,1505,3915,-40,-32,10,2024-01-29 16:48:05,0.0
625,1503,3872,-32,-56,13,2024-01-29 16:48:05,0.0
531,1547,3923,-31,-57,16,2024-01-29 16:48:05,0.0
621,1498,3858,-28,-10,3,2024-01-29 16:48:05,0.0
567,1482,3874,-29,-43,13,2024-01-29 16:48:05,0.0
624,1461,3966,5,-10,-8,2024-01-29 16:48:05,0.0
524,1627,3854,33,-119,-8,2024-01-29 16:48:05,0.0
593,1434,3933,5,22,20,2024-01-29 16:48:05,0.0
513,1484,3849,101,-75,-9,2024-01-29 16:48:05,0.0
685,1539,3849,215,-47,-17,2024-01-29 16:48:05,0.0
511,1542,3933,267,39,31,2024-01-29 16:48:05,0.0
413,1545,3713,446,-164,76,2024-01-29 16:48:05,0.0
624,1699,3879,541,-38,69,2024-01-29 16:48:05,0.0
489,1892,3794,582,-145,121,2024-01-29 16:48:05,0.0
309,1678,3423,773,-287,131,2024-01-29 16:48:06,0.0
772,1777,3667,877,-316,155,2024-01-29 16:48:06,0.0
662,2091,3379,1129,-480,146,2024-01-29 16:48:06,0.0
593,2494,3149,1216,-300,281,2024-01-29 16:48:06,0.0
613,3819,1925,908,-603,518,2024-01-29 16:48:06,0.0
1385,4338,2761,650,-1063,561,2024-01-29 16:48:06,0.0
1802,3675,2217,469,-1223,561,2024-01-29 16:48:06,0.0
1893,3269,2179,522,-1499,448,2024-01-29 16:48:06,0.0
1858,3999,2182,145,-1351,245,2024-01-29 16:48:06,0.0
2474,2645,1702,-259,-669,606,2024-01-29 16:48:06,0.0
2126,2980,1688,-465,-831,477,2024-01-29 16:48:06,0.0
2450,2404,1433,-678,-960,250,2024-01-29 16:48:06,0.0
2767,2791,1516,-769,-1157,183,2024-01-29 16:48:06,0.0
2372,3555,1470,-808,-1359,361,2024-01-29 16:48:06,0.0
2709,2811,1518,-724,-1104,159,2024-01-29 16:48:06,0.0
3437,1758,1215,-585,-971,369,2024-01-29 16:48:06,0.0
4297,3953,1698,-938,-907,558,2024-01-29 16:48:06,0.0
5338,1691,515,-299,-972,383,2024-01-29 16:48:06,0.0
5502,3147,819,255,-1215,114,2024-01-29 16:48:07,0.0
5322,2261,-574,1075,-1410,-70,2024-01-29 16:48:07,
5082,2710,36,1390,-1922,-430,2024-01-29 16:48:07,0.0
3820,3051,-616,1651,-1632,-1064,2024-01-29 16:48:07,0.0
3348,839,-708,1483,-2077,-1587,2024-01-29 16:48:07,0.0
1683,250,-2026,2643,-2381,-1506,2024-01-29 16:48:07,0.0
706,1383,-2528,2542,-3084,-1084,2024-01-29 16:48:07,0.0
1253,276,-3171,1801,-3187,-669,2024-01-29 16:48:07,0.0
1330,1627,-3482,2247,-2064,12,2024-01-29 16:48:07,0.0
194,915,-2136,983,-1164,434,2024-01-29 16:48:07,0.0
462,1528,-2807,728,-281,697,2024-01-29 16:48:07,0.0
540,1317,-3220,-172,515,1025,2024-01-29 16:48:07,0.0
-15,1264,-2285,-998,646,1192,2024-01-29 16:48:07,0.0
-24,3273,-5329,-1333,326,1038,2024-01-29 16:48:07,0.0
1988,2211,-5063,73,760,856,2024-01-29 16:48:07,0.0
3260,3227,-4174,68,898,524,2024-01-29 16:48:07,0.0
2907,2272,-4100,392,1139,564,2024-01-29 16:48:07,0.0
2740,2455,-3665,656,1080,599,2024-01-29 16:48:08,0.0
3189,2226,-3553,644,1078,450,2024-01-29 16:48:08,0.0
3146,1964,-2775,741,1068,492,2024-01-29 16:48:08,0.0
3636,1509,-2985,635,1485,432,2024-01-29 16:48:08,0.0
3464,1270,-2521,634,1575,482,2024-01-29 16:48:08,0.0
4165,758,-2449,520,2195,397,2024-01-29 16:48:08,0.0
2800,-125,-2308,484,2200,345,2024-01-29 16:48:08,0.0
2692,-1036,-1920,646,1631,259,2024-01-29 16:48:08,0.0
3565,-1157,-1626,768,754,169,2024-01-29 16:48:08,0.0
3191,-1004,-1435,418,1228,41,2024-01-29 16:48:08,0.0
3069,-1463,-484,220,515,94,2024-01-29 16:48:08,0.0
3689,-1061,-638,297,472,-3,2024-01-29 16:48:08,0.0
4213,-1634,-630,862,214,142,2024-01-29 16:48:08,0.0
3711,-444,-538,874,-71,-87,2024-01-29 16:48:08,0.0
4615,-505,-291,583,176,-127,2024-01-29 16:48:08,0.0
3812,394,95,-298,353,-604,2024-01-29 16:48:08,0.0
4379,-235,-216,-484,890,-520,2024-01-29 16:48:08,0.0
4009,-1553,-142,365,-65,50,2024-01-29 16:48:08,0.0
3918,-25,-130,179,195,-215,2024-01-29 16:48:09,0.0
5212,-986,-271,258,-25,39,2024-01-29 16:48:09,0.0
4526,-916,-680,77,82,101,2024-01-29 16:48:09,0.0
3628,-374,-643,-93,193,-68,2024-01-29 16:48:09,0.0
3697,-39,-703,356,325,158,2024-01-29 16:48:09,0.0
4840,-104,-245,657,175,39,2024-01-29 16:48:09,0.0
5064,-60,-187,407,147,107,2024-01-29 16:48:09,0.0
4871,-448,270,381,189,-37,2024-01-29 16:48:09,0.0
4736,-299,270,555,287,-56,2024-01-29 16:48:09,0.0
3982,-206,272,856,177,-1,2024-01-29 16:48:09,0.0
4048,392,311,865,369,101,2024-01-29 16:48:09,0.0
4289,-365,-222,656,84,83,2024-01-29 16:48:09,0.0
3952,82,3,520,-103,235,2024-01-29 16:48:09,0.0
4400,-476,73,105,67,-73,2024-01-29 16:48:09,0.0
4181,-483,445,333,67,113,2024-01-29 16:48:09,0.0
4160,-360,372,335,92,8,2024-01-29 16:48:09,0.0
4606,-373,350,228,86,48,2024-01-29 16:48:09,0.0
4039,-95,602,24,57,18,2024-01-29 16:48:10,0.0
4314,-675,492,41,-27,77,2024-01-29 16:48:10,0.0
4265,-410,430,92,15,63,2024-01-29 16:48:10,0.0
4064,-390,657,78,-52,135,2024-01-29 16:48:10,0.0
4373,-496,614,226,-77,171,2024-01-29 16:48:10,0.0
4290,-71,491,-41,-110,90,2024-01-29 16:48:10,0.0
4403,-311,658,-96,-171,112,2024-01-29 16:48:10,0.0
4435,-456,625,-156,14,45,2024-01-29 16:48:10,0.0
4322,-320,614,-179,-41,45,2024-01-29 16:48:10,0.0
4469,-544,453,-135,-50,8,2024-01-29 16:48:10,0.0
4332,-415,454,-165,-88,25,2024-01-29 16:48:10,0.0
4223,-349,389,-213,-257,6,2024-01-29 16:48:10,0.0
4082,-320,282,-256,-275,50,2024-01-29 16:48:10,0.0
4233,-414,135,-329,-177,16,2024-01-29 16:48:10,0.0
4231,-503,273,-258,-191,50,2024-01-29 16:48:10,0.0
4380,-576,202,-71,-89,11,2024-01-29 16:48:10,0.0
4163,-345,356,-138,-127,7,2024-01-29 16:48:10,0.0
4591,-497,158,-57,-56,16,2024-01-29 16:48:10,0.0
4271,-301,255,-48,-35,-2,2024-01-29 16:48:11,0.0
4456,-559,189,63,14,42,2024-01-29 16:48:11,0.0
4121,-457,312,86,51,41,2024-01-29 16:48:11,0.0
4384,-327,341,15,73,93,2024-01-29 16:48:11,0.0
4375,-293,327,-93,-110,19,2024-01-29 16:48:11,0.0
4252,-260,339,-198,-156,-15,2024-01-29 16:48:11,0.0
4551,-677,120,-149,-112,5,2024-01-29 16:48:11,0.0
4011,-560,260,-8,-99,20,2024-01-29 16:48:11,0.0
4245,-687,155,133,-65,104,2024-01-29 16:48:11,0.0
4338,-351,113,20,-51,38,2024-01-29 16:48:11,0.0
4329,-571,192,63,22,39,2024-01-29 16:48:11,0.0
4213,-511,187,76,56,25,2024-01-29 16:48:11,0.0
4391,-662,318,202,26,101,2024-01-29 16:48:11,0.0
4550,-459,309,149,208,0,2024-01-29 16:48:11,0.0
4211,-447,483,54,-18,86,2024-01-29 16:48:11,0.0
4344,-524,177,22,27,-4,2024-01-29 16:48:11,0.0
4059,-386,252,-75,19,46,2024-01-29 16:48:11,0.0
4441,-728,401,40,64,18,2024-01-29 16:48:12,0.0
4262,-396,396,29,26,24,2024-01-29 16:48:12,0.0
4470,-654,405,61,40,37,2024-01-29 16:48:12,0.0
4257,-511,361,7,9,11,2024-01-29 16:48:12,0.0
4212,-485,383,-66,-44,33,2024-01-29 16:48:12,0.0
4272,-608,403,-29,14,19,2024-01-29 16:48:12,0.0
4331,-703,396,30,96,31,2024-01-29 16:48:12,0.0
4272,-516,467,23,136,33,2024-01-29 16:48:12,0.0
4424,-489,490,-33,136,51,2024-01-29 16:48:12,0.0
4225,-638,641,-51,82,34,2024-01-29 16:48:12,0.0
4309,-572,630,-25,95,26,2024-01-29 16:48:12,0.0
4156,-574,690,-43,96,43,2024-01-29 16:48:12,0.0
4255,-615,681,-43,83,21,2024-01-29 16:48:12,0.0
4242,-639,728,-67,93,28,2024-01-29 16:48:12,0.0
4157,-645,763,-56,31,-2,2024-01-29 16:48:12,
4196,-614,785,-55,-16,6,2024-01-29 16:48:12,0.0
4300,-593,715,-70,-26,-2,2024-01-29 16:48:12,0.0
4235,-636,713,-64,14,-9,2024-01-29 16:48:13,0.0
4301,-551,754,-97,-98,3,2024-01-29 16:48:13,0.0
4180,-652,820,-44,-47,-19,2024-01-29 16:48:13,0.0
4292,-532,687,-79,-45,-14,2024-01-29 16:48:13,0.0
4208,-618,706,-49,-56,-1,2024-01-29 16:48:13,0.0
4363,-553,582,-59,-93,-3,2024-01-29 16:48:13,0.0
4250,-601,691,-63,-116,8,2024-01-29 16:48:13,0.0
4251,-589,585,-63,-116,-9,2024-01-29 16:48:13,0.0
4249,-604,600,-40,-144,3,2024-01-29 16:48:13,0.0
4274,-520,587,-25,-72,-11,2024-01-29 16:48:13,0.0
4305,-578,671,-44,-55,-9,2024-01-29 16:48:13,0.0
4332,-524,593,-48,-71,0,2024-01-29 16:48:13,0.0
4236,-552,613,-48,-90,-11,2024-01-29 16:48:13,0.0
4336,-619,543,-44,-101,-7,2024-01-29 16:48:13,0.0
4213,-579,541,-7,-28,-5,2024-01-29 16:48:13,0.0
4318,-569,569,-3,-30,-5,2024-01-29 16:48:13,0.0
4256,-510,590,-8,-26,-2,2024-01-29 16:48:13,0.0
4337,-520,508,-31,-10,-3,2024-01-29 16:48:13,0.0
4270,-572,583,-29,46,-8,2024-01-29 16:48:14,0.0
4202,-525,582,-57,64,-16,2024-01-29 16:48:14,0.0
4290,-506,587,-56,62,-27,2024-01-29 16:48:14,0.0
4270,-670,668,13,94,-3,2024-01-29 16:48:14,0.0
4400,-360,744,-66,64,-74,2024-01-29 16:48:14,0.0
4230,-589,696,-81,-20,23,2024-01-29 16:48:14,0.0
4119,-494,703,-91,21,-84,2024-01-29 16:48:14,0.0
4324,-483,739,-215,-50,-4,2024-01-29 16:48:14,0.0
4320,-598,639,-71,17,-52,2024-01-29 16:48:14,0.0
4281,-496,747,-67,35,-6,2024-01-29 16:48:14,0.0
4258,-446,807,-87,6,-35,2024-01-29 16:48:14,0.0
4288,-542,735,-65,-26,-11,2024-01-29 16:48:14,0.0
4210,-438,704,-102,-51,-21,2024-01-29 16:48:14,0.0
4274,-462,667,-98,-21,-25,2024-01-29 16:48:14,0.0
4256,-444,691,-69,-42,-13,2024-01-29 16:48:14,0.0
4290,-511,704,-96,-41,-27,2024-01-29 16:48:14,0.0
4252,-354,756,-57,-21,-31,2024-01-29 16:48:14,0.0
4270,-410,675,-101,-39,-37,2024-01-29 16:48:15,0.0
4230,-452,678,-67,-37,-46,2024-01-29 16:48:15,0.0
4315,-342,678,-60,-24,-8,2024-01-29 16:48:15,0.0
4196,-335,722,-77,-39,-36,2024-01-29 16:48:15,0.0
4410,-407,615,-107,11,-11,2024-01-29 16:48:15,0.0
4249,-394,766,-74,-3,-20,2024-01-29 16:48:15,0.0
4173,-378,723,-68,5,11,2024-01-29 16:48:15,0.0
4218,-296,682,-82,-35,1,2024-01-29 16:48:15,0.0
4218,-406,800,-84,-124,-4,2024-01-29 16:48:15,0.0
4346,-365,706,-22,-91,-18,2024-01-29 16:48:15,0.0
4215,-311,733,-101,-153,-9,2024-01-29 16:48:15,0.0
4251,-355,515,-57,-146,39,2024-01-29 16:48:15,0.0
4458,-481,493,150,-113,60,2024-01-29 16:48:15,0.0
4407,-436,569,175,3,49,2024-01-29 16:48:15,0.0
4198,-328,774,181,-68,53,2024-01-29 16:48:15,0.0
4336,-301,578,64,-140,36,2024-01-29 16:48:15,0.0
4198,-321,547,-30,-137,10,2024-01-29 16:48:15,0.0
4288,-396,505,-62,-119,18,2024-01-29 16:48:15,0.0
4390,-371,494,-134,-37,0,2024-01-29 16:48:16,0.0
4257,-517,514,-105,-93,38,2024-01-29 16:48:16,0.0
4321,-392,412,-80,-62,4,2024-01-29 16:48:16,0.0
4264,-425,420,-106,27,11,2024-01-29 16:48:16,0.0
4249,-420,527,-151,-3,-7,2024-01-29 16:48:16,0.0
4249,-445,500,-153,-29,-28,2024-01-29 16:48:16,0.0
4395,-381,556,-182,-51,-25,2024-01-29 16:48:16,0.0
4433,-474,437,-186,22,-42,2024-01-29 16:48:16,0.0
4229,-380,551,-177,7,-30,2024-01-29 16:48:16,0.0
4326,-481,591,-149,50,-34,2024-01-29 16:48:16,0.0
4208,-415,607,-124,100,-39,2024-01-29 16:48:16,0.0
4289,-348,548,-197,49,-29,2024-01-29 16:48:16,0.0
4326,-420,700,-165,39,-20,2024-01-29 16:48:16,0.0
4305,-432,600,-157,26,-19,2024-01-29 16:48:16,0.0
4275,-416,568,-151,-25,-2,2024-01-29 16:48:16,0.0
4256,-343,574,-181,-10,-10,2024-01-29 16:48:16,0.0
4315,-252,598,-210,0,-42,2024-01-29 16:48:16,0.0
4264,-356,615,-271,-25,-49,2024-01-29 16:48:17,0.0
4275,-328,593,-285,-15,-45,2024-01-29 16:48:17,0.0
4172,-383,759,-127,-137,-46,2024-01-29 16:48:17,0.0
4269,-574,584,74,-38,40,2024-01-29 16:48:17,0.0
4362,-295,626,232,-146,23,2024-01-29 16:48:17,0.0
4530,-8,485,155,-82,92,2024-01-29 16:48:17,0.0
4159,-391,598,170,-32,66,2024-01-29 16:48:17,0.0
4336,-76,535,64,-133,79,2024-01-29 16:48:17,0.0
4306,-256,420,-37,-92,28,2024-01-29 16:48:17,0.0
4308,-523,549,90,-75,63,2024-01-29 16:48:17,0.0
4363,-334,520,141,-100,56,2024-01-29 16:48:17,0.0
4330,-194,418,-7,-71,27,2024-01-29 16:48:17,0.0
4287,-475,578,-2,-141,18,2024-01-29 16:48:17,0.0
4228,-269,400,-32,-64,-8,2024-01-29 16:48:17,0.0
4298,-513,486,-48,-144,67,2024-01-29 16:48:17,0.0
4396,-420,380,-11,-40,6,2024-01-29 16:48:17,0.0
4318,-460,436,15,-62,63,2024-01-29 16:48:17,0.0
4330,-449,357,92,-105,19,2024-01-29 16:48:17,0.0
4274,-544,320,106,-24,46,2024-01-29 16:48:18,0.0
4361,-399,382,161,13,25,2024-01-29 16:48:18,0.0
4272,-348,378,51,-32,19,2024-01-29 16:48:18,0.0
4265,-355,348,-24,-70,13,2024-01-29 16:48:18,0.0
4375,-499,337,-62,-49,-6,2024-01-29 16:48:18,0.0
4206,-454,314,-37,-27,12,2024-01-29 16:48:18,0.0
4320,-470,348,-36,-10,12,2024-01-29 16:48:18,0.0
4302,-376,327,-36,25,26,2024-01-29 16:48:18,0.0
4273,-529,407,11,26,16,2024-01-29 16:48:18,0.0
4309,-417,427,18,5,25,2024-01-29 16:48:18,
4345,-363,376,6,37,25,2024-01-29 16:48:18,0.0
4331,-474,445,33,73,26,2024-01-29 16:48:18,0.0
4310,-430,533,7,25,27,2024-01-29 16:48:18,0.0
4241,-435,508,4,33,20,2024-01-29 16:48:18,0.0
4325,-405,446,-15,83,17,2024-01-29 16:48:18,0.0
4337,-427,543,-35,2,26,2024-01-29 16:48:18,0.0
4326,-417,512,-45,14,21,2024-01-29 16:48:18,0.0
4277,-486,503,-42,-7,12,2024-01-29 16:48:18,0.0
4239,-443,575,-59,-3,-4,2024-01-29 16:48:19,0.0
4244,-443,532,-77,5,-2,2024-01-29 16:48:19,0.0
4253,-495,591,-58,-15,-4,2024-01-29 16:48:19,0.0
4276,-413,606,-33,18,-9,2024-01-29 16:48:19,0.0
4392,-456,620,-62,-49,6,2024-01-29 16:48:19,0.0
4270,-442,612,-42,-7,-5,2024-01-29 16:48:19,0.0
4274,-459,625,-56,-34,-8,2024-01-29 16:48:19,0.0
4257,-355,508,-65,83,-8,2024-01-29 16:48:19,0.0
4288,-432,686,-90,40,-6,2024-01-29 16:48:19,0.0
4312,-410,610,-96,40,1,2024-01-29 16:48:19,0.0
4290,-484,635,-62,17,1,2024-01-29 16:48:19,0.0
4300,-441,697,-64,-58,-5,2024-01-29 16:48:19,0.0
4321,-364,635,-28,-49,7,2024-01-29 16:48:19,0.0
4237,-480,637,-41,-93,7,2024-01-29 16:48:19,0.0
4253,-380,578,-32,-77,-8,2024-01-29 16:48:19,0.0
4250,-401,605,-53,-78,-1,2024-01-29 16:48:19,0.0
4341,-407,539,-44,-47,-1,2024-01-29 16:48:19,0.0
4314,-396,627,-56,-23,0,2024-01-29 16:48:20,0.0
4264,-406,667,-72,-77,2,2024-01-29 16:48:20,0.0
4325,-463,579,-100,-70,-10,2024-01-29 16:48:20,0.0
4191,-373,577,-36,-117,-8,2024-01-29 16:48:20,0.0
4261,-71,483,-247,-58,-29,2024-01-29 16:48:20,0.0
4240,-45,431,-385,-131,-99,2024-01-29 16:48:20,0.0
4407,102,343,-592,-278,-146,2024-01-29 16:48:20,0.0
4455,279,255,-862,-179,-257,2024-01-29 16:48:20,0.0
3978,141,-116,-1267,-270,-359,2024-01-29 16:48:20,0.0
3713,-570,-527,-1180,-476,-423,2024-01-29 16:48:20,0.0
3512,-762,10,-1498,-101,-546,2024-01-29 16:48:20,0.0
5320,-984,282,-1410,258,-616,2024-01-29 16:48:20,0.0
4949,-849,-163,-1217,-50,-765,2024-01-29 16:48:20,0.0
5029,-698,-94,-765,801,-846,2024-01-29 16:48:20,0.0
3512,-888,465,-382,438,-1004,2024-01-29 16:48:20,0.0
2840,-424,484,-115,686,-1271,2024-01-29 16:48:20,0.0
2959,-634,256,657,688,-1330,2024-01-29 16:48:20,0.0
2468,579,10,760,472,-1248,2024-01-29 16:48:21,0.0
3157,2274,403,95,575,-1447,2024-01-29 16:48:21,0.0
3147,-471,778,-34,508,-1305,2024-01-29 16:48:21,0.0
2152,822,252,-300,590,-1422,2024-01-29 16:48:21,0.0
1845,-195,545,-225,371,-1424,2024-01-29 16:48:21,0.0
1450,-212,-14,80,963,-1458,2024-01-29 16:48:21,0.0
922,-271,-305,271,1080,-1447,2024-01-29 16:48:21,0.0
-207,130,1445,443,376,-1433,2024-01-29 16:48:21,0.0
8333,32767,10519,1760,1311,-3733,2024-01-29 16:48:21,0.0
-990,16130,596,-212,1501,-2667,2024-01-29 16:48:21,0.0
-3865,-3201,4484,826,387,397,2024-01-29 16:48:21,0.0
3297,5159,432,805,1349,536,2024-01-29 16:48:21,0.0
-3797,3003,-71,-445,970,-955,2024-01-29 16:48:21,0.0
-1743,286,1723,-19,-258,436,2024-01-29 16:48:21,0.0
552,5854,1461,-423,-345,757,2024-01-29 16:48:21,0.0
143,3603,1967,6,174,73,2024-01-29 16:48:21,0.0
696,3791,2642,60,-48,632,2024-01-29 16:48:21,0.0
1164,3802,1491,355,151,365,2024-01-29 16:48:21,0.0
1090,3142,1894,481,-30,184,2024-01-29 16:48:22,0.0
770,3859,865,254,35,-91,2024-01-29 16:48:22,0.0
615,3543,1235,73,-121,-197,2024-01-29 16:48:22,0.0
547,4410,1097,-76,-149,-147,2024-01-29 16:48:22,0.0
448,4022,1365,-102,-135,-153,2024-01-29 16:48:22,0.0
333,3710,1559,-45,-62,-32,2024-01-29 16:48:22,0.0
254,3699,1658,-26,-4,-5,2024-01-29 16:48:22,0.0
389,3504,1533,1,-127,66,2024-01-29 16:48:22,0.0
511,3952,1312,13,-61,92,2024-01-29 16:48:22,0.0
587,3886,1288,-24,-95,81,2024-01-29 16:48:22,0.0
750,3837,1375,-54,-14,65,2024-01-29 16:48:22,0.0
690,3763,1377,-66,-11,-23,2024-01-29 16:48:22,0.0
518,3813,1338,-55,5,-41,2024-01-29 16:48:22,0.0
469,3804,1460,-57,-62,-20,2024-01-29 16:48:22,0.0
494,3840,1464,-47,-116,-14,2024-01-29 16:48:22,0.0
526,3800,1377,-56,-39,20,2024-01-29 16:48:22,0.0
488,3823,1457,-78,-43,29,2024-01-29 16:48:22,0.0
590,3755,1398,-67,-31,27,2024-01-29 16:48:23,0.0
584,3833,1451,-70,-6,8,2024-01-29 16:48:23,0.0
563,3759,1444,-62,10,2,2024-01-29 16:48:23,0.0
519,3789,1521,-23,-15,10,2024-01-29 16:48:23,0.0
478,3743,1407,-73,87,11,2024-01-29 16:48:23,0.0
524,3878,1526,-47,-13,25,2024-01-29 16:48:23,0.0
513,3750,1471,-44,23,4,2024-01-29 16:48:23,0.0
528,3819,1452,-62,6,21,2024-01-29 16:48:23,0.0
519,3782,1474,-45,-21,7,2024-01-29 16:48:23,0.0
520,3800,1517,-62,-6,9,2024-01-29 16:48:23,0.0
509,3789,1524,-33,-20,3,2024-01-29 16:48:23,0.0
517,3789,1483,-41,8,4,2024-01-29 16:48:23,0.0
494,3838,1487,-36,-24,12,2024-01-29 16:48:23,0.0
485,3792,1506,-61,-3,17,2024-01-29 16:48:23,0.0
528,3766,1548,-41,-42,12,2024-01-29 16:48:23,0.0
503,3762,1398,-72,91,15,2024-01-29 16:48:23,0.0
482,3768,1473,-80,39,33,2024-01-29 16:48:23,0.0
483,3754,1555,-74,-26,9,2024-01-29 16:48:23,0.0
524,3747,1499,-46,-33,17,2024-01-29 16:48:24,0.0
482,3743,1528,-47,-34,6,2024-01-29 16:48:24,0.0
490,3802,1505,-78,-38,15,2024-01-29 16:48:24,0.0
544,3790,1535,-62,-1,-7,2024-01-29 16:48:24,0.0
473,3769,1584,-10,-57,-2,2024-01-29 16:48:24,
524,3766,1500,-55,-69,-6,2024-01-29 16:48:24,0.0
419,3781,1463,-95,-108,7,2024-01-29 16:48:24,0.0
468,3760,1539,-98,-172,24,2024-01-29 16:48:24,0.0
541,3736,1538,-101,-72,46,2024-01-29 16:48:24,0.0
603,3745,1617,-60,-57,36,2024-01-29 16:48:24,0.0
631,3725,1533,-37,-74,-21,2024-01-29 16:48:24,0.0
527,3751,1512,-69,-48,-5,2024-01-29 16:48:24,0.0
516,3817,1636,-99,-82,-2,2024-01-29 16:48:24,0.0
583,3687,1585,-87,-63,3,2024-01-29 16:48:24,0.0
533,3753,1602,-90,-55,10,2024-01-29 16:48:24,0.0
580,3717,1634,-86,-80,13,2024-01-29 16:48:24,0.0
582,3742,1647,-76,-56,15,2024-01-29 16:48:24,0.0
553,3661,1640,-77,-12,6,2024-01-29 16:48:25,0.0
599,3721,1621,-39,-32,3,2024-01-29 16:48:25,0.0
590,3698,1508,-41,54,-8,2024-01-29 16:48:25,0.0
583,3731,1607,-53,18,7,2024-01-29 16:48:25,0.0
555,3685,1602,-36,-14,-8,2024-01-29 16:48:25,0.0
533,3694,1645,-47,-10,8,2024-01-29 16:48:25,0.0
551,3653,1654,-35,6,24,2024-01-29 16:48:25,0.0
579,3669,1632,-8,14,16,2024-01-29 16:48:25,0.0
582,3721,1625,19,-2,15,2024-01-29 16:48:25,0.0
551,3727,1621,15,18,6,2024-01-29 16:48:25,0.0
567,3760,1593,-5,-20,11,2024-01-29 16:48:25,0.0
507,3762,1543,-13,-2,12,2024-01-29 16:48:25,0.0
564,3772,1602,-35,-37,12,2024-01-29 16:48:25,0.0
537,3707,1525,-32,28,7,2024-01-29 16:48:25,0.0
575,3769,1553,-40,31,19,2024-01-29 16:48:25,0.0
570,3729,1539,-44,-14,8,2024-01-29 16:48:25,0.0
507,3740,1585,-50,-31,17,2024-01-29 16:48:25,0.0
567,3732,1592,-34,-10,15,2024-01-29 16:48:25,0.0
542,3740,1546,-60,-8,5,2024-01-29 16:48:26,0.0
554,3747,1609,-52,-36,15,2024-01-29 16:48:26,0.0
545,3736,1570,-51,-15,1,2024-01-29 16:48:26,0.0
537,3712,1559,-50,0,11,2024-01-29 16:48:26,0.0
559,3734,1605,-49,-19,14,2024-01-29 16:48:26,0.0
532,3715,1625,-36,-14,12,2024-01-29 16:48:26,0.0
532,3756,1641,-44,-43,12,2024-01-29 16:48:26,0.0
563,3713,1620,-55,-6,18,2024-01-29 16:48:26,0.0
489,3789,1653,-46,-64,10,2024-01-29 16:48:26,0.0
526,3757,1606,-21,-37,8,2024-01-29 16:48:26,0.0
578,3715,1591,-30,-18,11,2024-01-29 16:48:26,0.0
517,3786,1657,-34,-53,9,2024-01-29 16:48:26,0.0
562,3713,1592,-49,-30,17,2024-01-29 16:48:26,0.0
553,3746,1582,-44,-25,11,2024-01-29 16:48:26,0.0
550,3740,1613,-34,-19,8,2024-01-29 16:48:26,0.0
584,3734,1611,-43,-30,10,2024-01-29 16:48:26,0.0
546,3737,1619,-42,-31,12,2024-01-29 16:48:26,0.0
569,3747,1607,-15,-52,4,2024-01-29 16:48:27,0.0
537,3737,1530,-19,-21,7,2024-01-29 16:48:27,0.0
547,3748,1544,-51,25,14,2024-01-29 16:48:27,0.0
575,3731,1660,-19,-132,19,2024-01-29 16:48:27,0.0
578,3755,1572,-17,-66,12,2024-01-29 16:48:27,0.0
538,3725,1517,-36,-52,11,2024-01-29 16:48:27,0.0
567,3675,1600,-32,-79,8,2024-01-29 16:48:27,0.0
592,3807,1562,-21,-72,13,2024-01-29 16:48:27,0.0
557,3744,1542,-31,-67,1,2024-01-29 16:48:27,0.0
550,3734,1522,-28,-79,14,2024-01-29 16:48:27,0.0
587,3744,1597,-18,-81,14,2024-01-29 16:48:27,0.0
638,3702,1555,1,-39,9,2024-01-29 16:48:27,0.0
580,3791,1547,-7,-39,3,2024-01-29 16:48:27,0.0
611,3740,1498,-23,-47,13,2024-01-29 16:48:27,0.0
569,3785,1494,-13,-51,0,2024-01-29 16:48:27,0.0
582,3783,1521,-32,-23,8,2024-01-29 16:48:27,0.0
621,3735,1390,-34,46,2,2024-01-29 16:48:27,0.0
608,3749,1463,-51,16,26,2024-01-29 16:48:28,0.0
648,3781,1513,-27,-17,-4,2024-01-29 16:48:28,0.0
587,3726,1492,-39,12,15,2024-01-29 16:48:28,0.0
571,3804,1521,-47,15,19,2024-01-29 16:48:28,0.0
574,3721,1495,-48,-15,17,2024-01-29 16:48:28,0.0
575,3794,1545,-57,-16,12,2024-01-29 16:48:28,0.0
629,3734,1510,-34,-2,7,2024-01-29 16:48:28,0.0
565,3788,1490,-45,10,10,2024-01-29 16:48:28,0.0
555,3727,1564,-63,-12,19,2024-01-29 16:48:28,0.0
580,3775,1557,-64,-42,14,2024-01-29 16:48:28,0.0
592,3751,1630,-70,3,21,2024-01-29 16:48:28,0.0
526,3761,1561,-36,-8,14,2024-01-29 16:48:28,0.0
567,3756,1520,-54,-10,5,2024-01-29 16:48:28,0.0
555,3719,1553,-54,-31,8,2024-01-29 16:48:28,0.0
569,3754,1562,-59,-32,14,2024-01-29 16:48:28,0.0
592,3713,1600,-71,-24,12,2024-01-29 16:48:28,0.0
584,3764,1552,-46,-9,7,2024-01-29 16:48:28,0.0
609,3716,1542,-42,-35,2,2024-01-29 16:48:28,0.0
562,3739,1593,-52,-33,8,2024-01-29 16:48:29,0.0
573,3732,1595,-38,-19,6,2024-01-29 16:48:29,0.0
573,3734,1552,-46,-23,8,2024-01-29 16:48:29,0.0
602,3757,1538,-44,-28,7,2024-01-29 16:48:29,0.0
596,3731,1585,-52,-29,9,2024-01-29 16:48:29,0.0
558,3758,1570,-46,-29,7,2024-01-29 16:48:29,0.0
564,3762,1600,-28,-10,8,2024-01-29 16:48:29,0.0
599,3733,1564,-32,-10,8,2024-01-29 16:48:29,0.0
626,3729,1416,-30,31,11,2024-01-29 16:48:29,0.0
545,3787,1646,-41,-83,8,2024-01-29 16:48:29,0.0
558,3769,1619,-10,-83,6,2024-01-29 16:48:29,0.0
579,3707,1552,-24,-24,-3,2024-01-29 16:48:29,0.0
548,3751,1607,-24,-94,2,2024-01-29 16:48:29,0.0
596,3752,1598,-31,-88,6,2024-01-29 16:48:29,0.0
570,3778,1555,-35,-62,1,2024-01-29 16:48:29,0.0
573,3722,1544,-13,-65,-2,2024-01-29 16:48:29,0.0
601,3784,1532,-21,-23,9,2024-01-29 16:48:29,0.0
582,3758,1525,-17,-50,3,2024-01-29 16:48:29,
600,3770,1460,-13,-6,-1,2024-01-29 16:48:30,0.0
626,3772,1473,-22,15,11,2024-01-29 16:48:30,0.0
601,3769,1549,-14,-60,-17,2024-01-29 16:48:30,0.0
561,3762,1481,-29,-26,3,2024-01-29 16:48:30,0.0
540,3777,1514,-32,-31,7,2024-01-29 16:48:30,0.0
615,3743,1493,-36,-28,1,2024-01-29 16:48:30,0.0
588,3772,1522,-28,-16,4,2024-01-29 16:48:30,0.0
585,3751,1475,-29,-16,-3,2024-01-29 16:48:30,0.0
548,3781,1473,-50,2,1,2024-01-29 16:48:30,0.0
567,3732,1514,-61,-5,3,2024-01-29 16:48:30,0.0
498,3805,1477,-75,9,9,2024-01-29 16:48:30,0.0
533,3747,1517,-55,-3,12,2024-01-29 16:48:30,0.0
532,3778,1543,-72,9,8,2024-01-29 16:48:30,0.0
552,3808,1454,-72,2,19,2024-01-29 16:48:30,0.0
524,3751,1550,-92,-10,10,2024-01-29 16:48:30,0.0
571,3745,1541,-95,10,19,2024-01-29 16:48:30,0.0
543,3743,1499,-99,27,10,2024-01-29 16:48:30,0.0
593,3705,1549,-92,39,15,2024-01-29 16:48:31,0.0
561,3711,1644,-77,-27,-1,2024-01-29 16:48:31,0.0
560,3725,1617,-71,-36,8,2024-01-29 16:48:31,0.0
548,3732,1547,-59,15,15,2024-01-29 16:48:31,0.0
528,3691,1620,-60,-51,7,2024-01-29 16:48:31,0.0
541,3751,1644,-56,-36,9,2024-01-29 16:48:31,0.0
547,3764,1644,-50,-28,5,2024-01-29 16:48:31,0.0
547,3726,1580,-54,-42,4,2024-01-29 16:48:31,0.0
537,3743,1612,-64,-20,11,2024-01-29 16:48:31,0.0
580,3718,1634,-61,-40,4,2024-01-29 16:48:31,0.0
555,3710,1641,-58,-28,3,2024-01-29 16:48:31,0.0
622,3699,1577,-75,54,11,2024-01-29 16:48:31,0.0
537,3713,1719,-72,-48,13,2024-01-29 16:48:31,0.0
536,3743,1685,-80,-11,10,2024-01-29 16:48:31,0.0
553,3729,1602,-136,32,28,2024-01-29 16:48:31,0.0
448,3649,1843,-124,-32,62,2024-01-29 16:48:31,0.0
556,3661,1892,-159,-103,63,2024-01-29 16:48:31,0.0
493,3727,1837,-81,29,108,2024-01-29 16:48:31,0.0
618,3819,1359,-123,34,205,2024-01-29 16:48:32,0.0
548,3698,1836,-91,274,331,2024-01-29 16:48:32,0.0
553,3523,1857,-94,-199,205,2024-01-29 16:48:32,0.0
680,3749,1867,-267,-241,152,2024-01-29 16:48:32,0.0
1009,3271,1935,-153,-207,49,2024-01-29 16:48:32,0.0
882,3554,2103,-126,-164,118,2024-01-29 16:48:32,0.0
613,3324,1853,89,-211,204,2024-01-29 16:48:32,0.0
736,4045,1904,44,-248,257,2024-01-29 16:48:32,0.0
786,3746,1403,71,-723,363,2024-01-29 16:48:32,0.0
840,4444,2483,344,-894,284,2024-01-29 16:48:32,0.0
1497,3547,1232,-74,-748,425,2024-01-29 16:48:32,0.0
908,4323,1687,-120,-1199,517,2024-01-29 16:48:32,0.0
1565,3076,2038,-495,-1071,604,2024-01-29 16:48:32,0.0
1818,3071,1309,-270,-810,541,2024-01-29 16:48:32,0.0
2011,3663,1591,-284,-754,568,2024-01-29 16:48:32,0.0
2320,2690,1625,-310,-869,438,2024-01-29 16:48:32,0.0
1963,3362,1532,-275,-1243,453,2024-01-29 16:48:32,0.0
2490,3205,1113,-272,-1115,499,2024-01-29 16:48:33,0.0
2736,2658,752,-312,-1322,613,2024-01-29 16:48:33,0.0
3051,2651,583,-29,-1342,625,2024-01-29 16:48:33,0.0
3096,2545,761,53,-1556,789,2024-01-29 16:48:33,0.0
3587,3573,721,138,-1635,785,2024-01-29 16:48:33,0.0
5148,2738,-758,309,-1232,476,2024-01-29 16:48:33,0.0
5145,2434,124,946,-1302,590,2024-01-29 16:48:33,0.0
4474,2760,-1065,846,-724,27,2024-01-29 16:48:33,0.0
4566,2440,-2422,871,-828,-553,2024-01-29 16:48:33,0.0
3959,2053,-2280,1308,-1266,-1000,2024-01-29 16:48:33,0.0
2299,2154,-2887,1616,-2015,-1046,2024-01-29 16:48:33,0.0
2347,1213,-2354,1250,-1793,-1187,2024-01-29 16:48:33,0.0
1950,1005,-2323,1569,-2175,-1196,2024-01-29 16:48:33,0.0
1261,2357,-2838,887,-2489,-909,2024-01-29 16:48:33,0.0
1360,465,-3668,1422,-1915,-315,2024-01-29 16:48:33,0.0
85,1963,-2727,1299,-1549,-287,2024-01-29 16:48:33,0.0
-121,2,-2445,1016,-874,251,2024-01-29 16:48:33,0.0
280,70,-2345,858,-313,412,2024-01-29 16:48:33,0.0
12,198,-2353,390,-125,652,2024-01-29 16:48:34,0.0
-23,1882,-2962,-33,793,1401,2024-01-29 16:48:34,0.0
-431,1508,-4013,-633,868,1309,2024-01-29 16:48:34,0.0
596,2597,-4710,-673,910,1116,2024-01-29 16:48:34,0.0
1534,2248,-4808,-146,350,771,2024-01-29 16:48:34,0.0
2420,1983,-4062,108,718,569,2024-01-29 16:48:34,0.0
3053,2693,-4095,266,785,545,2024-01-29 16:48:34,0.0
3394,1861,-4298,418,1156,630,2024-01-29 16:48:34,0.0
3590,1869,-3408,604,1025,575,2024-01-29 16:48:34,0.0
3915,1553,-3732,584,1238,534,2024-01-29 16:48:34,0.0
4177,1833,-3588,659,1042,518,2024-01-29 16:48:34,0.0
4004,1188,-2845,586,1499,356,2024-01-29 16:48:34,0.0
2856,160,-2706,564,706,-3,2024-01-29 16:48:34,0.0
1995,-1165,-2664,1449,1110,-246,2024-01-29 16:48:34,0.0
1153,-2049,-2069,1214,403,-103,2024-01-29 16:48:34,0.0
2541,-1031,-2697,652,633,-116,2024-01-29 16:48:34,0.0
2481,-1711,-2023,490,269,-25,2024-01-29 16:48:34,0.0
2813,-1142,-1876,485,638,-211,2024-01-29 16:48:35,0.0
3410,-993,-2176,4,97,-275,2024-01-29 16:48:35,0.0
3540,-978,-1303,-242,219,-345,2024-01-29 16:48:35,0.0
4248,-1618,-2509,-483,1046,-329,2024-01-29 16:48:35,0.0
4590,-851,-1819,-274,792,-121,2024-01-29 16:48:35,0.0
4289,-1549,-1515,76,765,-22,2024-01-29 16:48:35,0.0
4496,-880,-1711,67,842,-33,2024-01-29 16:48:35,0.0
4287,-627,-1271,68,891,-17,2024-01-29 16:48:35,0.0
3850,-27,-1073,-121,686,-160,2024-01-29 16:48:35,0.0
4062,-896,-739,237,979,35,2024-01-29 16:48:35,0.0
3476,120,-549,166,544,-127,2024-01-29 16:48:35,0.0
4071,-209,-453,114,1020,-36,2024-01-29 16:48:35,0.0
3775,-135,-96,262,680,32,2024-01-29 16:48:35,
4022,-51,-66,114,519,45,2024-01-29 16:48:35,0.0
4549,-258,291,154,419,126,2024-01-29 16:48:35,0.0
4458,-215,456,72,441,64,2024-01-29 16:48:35,0.0
4575,-156,442,144,376,80,2024-01-29 16:48:35,0.0
4106,-466,580,64,-239,-51,2024-01-29 16:48:36,0.0
4362,-59,583,20,-164,25,2024-01-29 16:48:36,0.0
4074,41,837,-85,-228,-88,2024-01-29 16:48:36,0.0
4468,-637,268,5,-169,62,2024-01-29 16:48:36,0.0
4335,-160,545,12,-63,-24,2024-01-29 16:48:36,0.0
4314,-325,301,-32,-100,67,2024-01-29 16:48:36,0.0
4460,-302,156,64,-243,74,2024-01-29 16:48:36,0.0
4503,-107,206,-153,-144,-22,2024-01-29 16:48:36,0.0
4303,-473,255,-195,-172,-40,2024-01-29 16:48:36,0.0
4198,-266,217,-170,-32,-59,2024-01-29 16:48:36,0.0
4158,-422,307,-254,-216,-46,2024-01-29 16:48:36,0.0
4329,-131,217,-292,-153,-39,2024-01-29 16:48:36,0.0
4250,-531,130,-213,-37,-19,2024-01-29 16:48:36,0.0
4354,-581,311,-21,-167,-10,2024-01-29 16:48:36,0.0
4418,-124,226,-61,-95,-5,2024-01-29 16:48:36,0.0
4284,-547,259,-35,-135,47,2024-01-29 16:48:36,0.0
4381,-189,118,31,-166,27,2024-01-29 16:48:36,0.0
4348,-511,-2,93,-289,71,2024-01-29 16:48:36,0.0
4254,-344,-79,116,-157,43,2024-01-29 16:48:37,0.0
4224,-240,204,-31,-430,91,2024-01-29 16:48:37,0.0
4416,-237,-307,-237,-504,62,2024-01-29 16:48:37,0.0
4567,-772,-62,-13,-439,40,2024-01-29 16:48:37,0.0
4181,-446,-401,-60,-353,157,2024-01-29 16:48:37,0.0
4137,-386,-235,19,-428,110,2024-01-29 16:48:37,0.0
4377,-363,-668,3,-200,126,2024-01-29 16:48:37,0.0
4122,-547,-687,111,-302,83,2024-01-29 16:48:37,0.0
4663,-542,-971,70,19,72,2024-01-29 16:48:37,0.0
4087,-288,-399,16,-103,148,2024-01-29 16:48:37,0.0
4151,-768,-625,53,-124,24,2024-01-29 16:48:37,0.0
4522,-199,-560,0,-279,92,2024-01-29 16:48:37,0.0
4558,-598,-1021,-30,-204,10,2024-01-29 16:48:37,0.0
4269,-892,-769,4,-308,17,2024-01-29 16:48:37,0.0
4099,-381,-605,172,-402,-73,2024-01-29 16:48:37,0.0
4012,-528,-706,35,-176,-135,2024-01-29 16:48:37,0.0
4342,-560,-1011,-41,-105,-79,2024-01-29 16:48:37,0.0
4505,-352,-1060,53,-201,-85,2024-01-29 16:48:37,0.0
4003,-240,-934,101,477,-53,2024-01-29 16:48:38,0.0
3508,-429,-1030,-57,464,128,2024-01-29 16:48:38,0.0
4480,-1084,-372,251,504,-29,2024-01-29 16:48:38,0.0
4206,-323,-538,251,52,139,2024-01-29 16:48:38,0.0
4904,-594,-822,115,98,94,2024-01-29 16:48:38,0.0
4610,-682,-406,-17,174,21,2024-01-29 16:48:38,0.0
3933,-513,-448,-3,124,42,2024-01-29 16:48:38,0.0
4164,-660,-243,57,167,-19,2024-01-29 16:48:38,0.0
4387,-700,-450,50,105,26,2024-01-29 16:48:38,0.0
4381,-565,-472,58,95,1,2024-01-29 16:48:38,0.0
4221,-572,-274,24,21,-43,2024-01-29 16:48:38,0.0
4341,-481,-243,-13,44,-11,2024-01-29 16:48:38,0.0
4314,-352,-421,14,46,-84,2024-01-29 16:48:38,0.0
4184,-308,-259,-157,143,-25,2024-01-29 16:48:38,0.0
4211,-577,-620,-183,219,-22,2024-01-29 16:48:38,0.0
4447,-500,354,-81,-165,0,2024-01-29 16:48:38,0.0
4381,-591,-266,51,10,-119,2024-01-29 16:48:38,0.0
4562,-464,-285,-198,158,25,2024-01-29 16:48:39,0.0
4239,-468,-195,-29,-28,-53,2024-01-29 16:48:39,0.0
4224,-458,-165,-155,84,-10,2024-01-29 16:48:39,0.0
4282,-360,-233,-155,76,-21,2024-01-29 16:48:39,0.0
4423,-560,-69,-241,80,49,2024-01-29 16:48:39,0.0
4303,-444,-74,-211,102,-3,2024-01-29 16:48:39,0.0
4315,-836,-37,-220,178,-5,2024-01-29 16:48:39,0.0
4125,-470,-121,-86,193,18,2024-01-29 16:48:39,0.0
4448,-668,174,-97,91,66,2024-01-29 16:48:39,0.0
4277,-619,-42,7,114,11,2024-01-29 16:48:39,0.0
4307,-542,233,-23,74,8,2024-01-29 16:48:39,0.0
4316,-465,198,-46,76,72,2024-01-29 16:48:39,0.0
4420,-555,182,0,-37,-32,2024-01-29 16:48:39,0.0
4253,-469,179,-63,-37,33,2024-01-29 16:48:39,0.0
4340,-467,212,-42,-54,-18,2024-01-29 16:48:39,0.0
4313,-518,91,-6,-22,10,2024-01-29 16:48:39,0.0
4333,-555,235,9,-48,4,2024-01-29 16:48:39,0.0
4382,-485,130,21,-134,-4,2024-01-29 16:48:40,0.0
4243,-457,135,59,-88,0,2024-01-29 16:48:40,0.0
4338,-434,109,38,-48,-5,2024-01-29 16:48:40,0.0
4327,-455,118,34,-31,10,2024-01-29 16:48:40,0.0
4367,-470,63,36,-18,13,2024-01-29 16:48:40,0.0
4283,-454,68,25,-58,15,2024-01-29 16:48:40,0.0
4309,-466,102,6,-196,23,2024-01-29 16:48:40,0.0
4393,-524,96,2,-99,15,2024-01-29 16:48:40,0.0
4242,-482,85,-43,-117,15,2024-01-29 16:48:40,0.0
4391,-470,-34,-24,-84,-5,2024-01-29 16:48:40,0.0
4270,-475,-41,-63,-80,-2,2024-01-29 16:48:40,0.0
4414,-470,16,-53,-257,5,2024-01-29 16:48:40,0.0
4291,-539,-196,-42,56,14,2024-01-29 16:48:40,0.0
4267,-349,116,-40,-50,-2,2024-01-29 16:48:40,0.0
4199,-539,-125,-94,-77,5,2024-01-29 16:48:40,0.0
4341,-460,-3,-91,-196,-4,2024-01-29 16:48:40,0.0
4389,-616,-38,-74,-140,15,2024-01-29 16:48:40,0.0
4283,-472,-126,-69,-140,15,2024-01-29 16:48:40,0.0
4289,-516,-207,-39,-57,13,2024-01-29 16:48:41,0.0
4316,-493,-129,-36,37,14,2024-01-29 16:48:41,0.0
4298,-490,-49,-37,-15,22,2024-01-29 16:48:41,0.0
4363,-487,-123,-13,38,14,2024-01-29 16:48:41,0.0
4386,-466,-197,-24,-54,21,2024-01-29 16:48:41,0.0
4300,-481,-180,-27,92,24,2024-01-29 16:48:41,0.0
4237,-521,134,-17,120,-2,2024-01-29 16:48:41,0.0
4402,-535,-75,-36,63,10,2024-01-29 16:48:41,
4206,-543,-22,-33,115,-12,2024-01-29 16:48:41,0.0
4340,-496,-50,-7,147,4,2024-01-29 16:48:41,0.0
4377,-535,101,-18,108,-3,2024-01-29 16:48:41,0.0
4248,-425,102,-9,75,4,2024-01-29 16:48:41,0.0
4332,-535,168,-21,76,-6,2024-01-29 16:48:41,0.0
4371,-445,181,-14,80,12,2024-01-29 16:48:41,0.0
4348,-516,160,-29,100,-9,2024-01-29 16:48:41,0.0
4296,-453,250,-29,66,2,2024-01-29 16:48:41,0.0
4284,-474,162,-32,76,3,2024-01-29 16:48:41,0.0
4359,-478,264,-39,44,8,2024-01-29 16:48:42,0.0
4390,-493,295,-62,7,7,2024-01-29 16:48:42,0.0
4372,-494,255,-35,66,11,2024-01-29 16:48:42,0.0
4305,-478,298,-61,10,6,2024-01-29 16:48:42,0.0
4312,-464,344,-51,-33,3,2024-01-29 16:48:42,0.0
4330,-495,232,-32,31,8,2024-01-29 16:48:42,0.0
4315,-458,375,-36,-8,6,2024-01-29 16:48:42,0.0
4331,-527,311,-30,41,5,2024-01-29 16:48:42,0.0
4348,-476,328,-20,42,12,2024-01-29 16:48:42,0.0
4295,-468,399,-28,23,7,2024-01-29 16:48:42,0.0
4279,-459,406,-30,-10,7,2024-01-29 16:48:42,0.0
4311,-507,336,-23,-4,10,2024-01-29 16:48:42,0.0
4273,-448,521,-46,42,11,2024-01-29 16:48:42,0.0
4293,-497,380,-40,-20,13,2024-01-29 16:48:42,0.0
4324,-463,445,-43,7,1,2024-01-29 16:48:42,0.0
4256,-482,366,-43,3,5,2024-01-29 16:48:42,0.0
4379,-463,420,-34,-1,11,2024-01-29 16:48:42,0.0
4231,-497,430,-27,-39,11,2024-01-29 16:48:42,0.0
4390,-511,432,17,-22,20,2024-01-29 16:48:43,0.0
4288,-475,406,24,36,16,2024-01-29 16:48:43,0.0
4341,-441,486,-25,-37,7,2024-01-29 16:48:43,0.0
4335,-492,483,-56,-16,-1,2024-01-29 16:48:43,0.0
4309,-418,506,-83,55,-9,2024-01-29 16:48:43,0.0
4214,-517,439,-94,-213,-21,2024-01-29 16:48:43,0.0
4198,-271,386,-359,-157,-48,2024-01-29 16:48:43,0.0
4134,407,-57,-777,-376,-113,2024-01-29 16:48:43,0.0
4714,299,122,-1053,-380,-208,2024-01-29 16:48:43,0.0
4017,-294,482,-737,-298,-156,2024-01-29 16:48:43,0.0
4816,954,-201,-1041,-609,-155,2024-01-29 16:48:43,0.0
4417,425,-386,-1337,-192,-349,2024-01-29 16:48:43,0.0
4261,-41,-365,-1410,-159,-492,2024-01-29 16:48:43,0.0
3643,-545,-1016,-1458,-267,-628,2024-01-29 16:48:43,0.0
3351,-1508,-874,-999,-168,-524,2024-01-29 16:48:43,0.0
5217,-1112,-142,-1005,437,-893,2024-01-29 16:48:43,0.0
6089,-979,-366,-650,700,-898,2024-01-29 16:48:43,0.0
3994,-322,55,-217,795,-1169,2024-01-29 16:48:44,0.0
3225,39,494,-100,696,-1245,2024-01-29 16:48:44,0.0
2411,630,-38,-411,584,-1352,2024-01-29 16:48:44,0.0
2750,395,280,-231,950,-1208,2024-01-29 16:48:44,0.0
1925,910,213,-722,819,-1304,2024-01-29 16:48:44,0.0
2532,41,171,-672,676,-1080,2024-01-29 16:48:44,0.0
2335,143,276,-517,963,-1103,2024-01-29 16:48:44,0.0
1767,17,448,-172,707,-1072,2024-01-29 16:48:44,0.0
1618,-519,209,-3,1127,-1066,2024-01-29 16:48:44,0.0
1143,-579,-158,466,1268,-1057,2024-01-29 16:48:44,0.0
-590,174,1207,1093,623,-974,2024-01-29 16:48:44,0.0
8661,32767,18820,-847,-1161,-2773,2024-01-29 16:48:44,0.0
-3396,6361,4059,-1563,889,-2632,2024-01-29 16:48:44,0.0
-4955,-2349,3470,55,893,1411,2024-01-29 16:48:44,0.0
3551,6270,244,-85,1361,287,2024-01-29 16:48:44,0.0
-2950,1670,1595,-723,265,-684,2024-01-29 16:48:44,0.0
-2505,1847,2070,-951,-156,453,2024-01-29 16:48:44,0.0
851,2132,3162,-592,-412,266,2024-01-29 16:48:44,0.0
124,4321,3828,-330,-100,135,2024-01-29 16:48:45,0.0
702,1662,3767,-64,-195,15,2024-01-29 16:48:45,0.0
392,2704,3076,277,130,323,2024-01-29 16:48:45,0.0
774,3032,2664,304,-17,10,2024-01-29 16:48:45,0.0
403,2227,2577,312,-146,249,2024-01-29 16:48:45,0.0
600,3562,2834,235,234,160,2024-01-29 16:48:45,0.0
381,3253,2468,250,-17,12,2024-01-29 16:48:45,0.0
313,3205,2466,178,-131,37,2024-01-29 16:48:45,0.0
610,3445,2590,4,2,-12,2024-01-29 16:48:45,0.0
439,3148,2457,-37,24,-28,2024-01-29 16:48:45,0.0
564,3256,2661,-66,-68,11,2024-01-29 16:48:45,0.0
498,3124,2732,-54,-16,-21,2024-01-29 16:48:45,0.0
328,3058,2613,-43,-68,-6,2024-01-29 16:48:45,0.0
416,3159,2622,-59,-51,15,2024-01-29 16:48:45,0.0
517,3157,2631,-37,-82,13,2024-01-29 16:48:45,0.0
486,3153,2680,-41,-63,27,2024-01-29 16:48:45,0.0
474,3152,2684,-27,-73,20,2024-01-29 16:48:45,0.0
490,3118,2581,-35,19,42,2024-01-29 16:48:46,0.0
529,3180,2663,27,-36,2,2024-01-29 16:48:46,0.0
398,3161,2572,-7,-74,1,2024-01-29 16:48:46,0.0
461,3258,2742,-47,-32,32,2024-01-29 16:48:46,0.0
445,3179,2482,3,-68,-17,2024-01-29 16:48:46,0.0
502,3152,2581,-37,-2,19,2024-01-29 16:48:46,0.0
339,3216,2630,-36,-106,19,2024-01-29 16:48:46,0.0
525,3226,2560,-75,-14,24,2024-01-29 16:48:46,0.0
500,3215,2586,-65,-54,10,2024-01-29 16:48:46,0.0
487,3084,2667,-65,-61,8,2024-01-29 16:48:46,0.0
523,3167,2593,-48,7,-6,2024-01-29 16:48:46,0.0
471,3170,2662,-23,6,6,2024-01-29 16:48:46,0.0
420,3124,2554,-21,-12,0,2024-01-29 16:48:46,0.0
452,3192,2458,-55,118,25,2024-01-29 16:48:46,0.0
516,3197,2585,-53,-100,-4,2024-01-29 16:48:46,0.0
578,3279,2478,35,51,36,2024-01-29 16:48:46,0.0
417,3110,2897,-89,-207,5,2024-01-29 16:48:46,0.0
585,3088,2456,-25,52,-2,2024-01-29 16:48:46,0.0
433,3190,2640,-50,20,10,2024-01-29 16:48:47,0.0
442,3140,2631,-32,-8,19,2024-01-29 16:48:47,0.0
555,3165,2510,-25,-12,1,2024-01-29 16:48:47,
428,3156,2623,-62,-11,18,2024-01-29 16:48:47,0.0
507,3144,2583,-30,-10,1,2024-01-29 16:48:47,0.0
413,3116,2608,-70,-7,9,2024-01-29 16:48:47,0.0
499,3162,2610,-39,-54,20,2024-01-29 16:48:47,0.0
424,3192,2577,-47,-6,1,2024-01-29 16:48:47,0.0
457,3190,2613,-50,-43,14,2024-01-29 16:48:47,0.0
455,3163,2597,-56,-61,6,2024-01-29 16:48:47,0.0
482,3143,2598,-80,-49,10,2024-01-29 16:48:47,0.0
465,3155,2603,-54,-52,-1,2024-01-29 16:48:47,0.0
469,3137,2605,-79,-57,4,2024-01-29 16:48:47,0.0
507,3153,2672,-58,-76,1,2024-01-29 16:48:47,0.0
494,3133,2571,-66,5,5,2024-01-29 16:48:47,0.0
525,3140,2741,-54,-101,4,2024-01-29 16:48:47,0.0
559,3069,2478,-41,39,-10,2024-01-29 16:48:47,0.0
488,3172,2592,-56,47,23,2024-01-29 16:48:48,0.0
559,3084,2612,-30,-27,-7,2024-01-29 16:48:48,0.0
459,3142,2599,-59,-23,13,2024-01-29 16:48:48,0.0
495,3185,2692,-66,-27,4,2024-01-29 16:48:48,0.0
504,3101,2605,-49,4,3,2024-01-29 16:48:48,0.0
578,3190,2660,-49,-28,3,2024-01-29 16:48:48,0.0
498,3126,2654,-40,-24,0,2024-01-29 16:48:48,0.0
490,3133,2645,-37,-23,6,2024-01-29 16:48:48,0.0
504,3113,2662,-38,18,-10,2024-01-29 16:48:48,0.0
404,3156,2600,-44,25,15,2024-01-29 16:48:48,0.0
441,3184,2673,-44,-46,18,2024-01-29 16:48:48,0.0
434,3124,2681,-42,9,11,2024-01-29 16:48:48,0.0
465,3176,2755,-27,-86,9,2024-01-29 16:48:48,0.0
445,3114,2644,-44,4,0,2024-01-29 16:48:48,0.0
486,3138,2653,-25,36,13,2024-01-29 16:48:48,0.0
440,3119,2686,-35,-1,12,2024-01-29 16:48:48,0.0
457,3144,2651,-29,-14,15,2024-01-29 16:48:48,0.0
423,3191,2641,-25,-14,1,2024-01-29 16:48:48,0.0
419,3161,2562,-37,-49,4,2024-01-29 16:48:49,0.0
398,3161,2635,-76,-63,16,2024-01-29 16:48:49,0.0
512,3202,2719,-82,-78,5,2024-01-29 16:48:49,0.0
452,3150,2738,-64,-46,9,2024-01-29 16:48:49,0.0
528,3118,2503,-46,-103,-7,2024-01-29 16:48:49,0.0
668,3121,2581,-113,114,28,2024-01-29 16:48:49,0.0
593,3030,2796,-84,-11,-18,2024-01-29 16:48:49,0.0
386,3121,2709,-33,-37,-9,2024-01-29 16:48:49,0.0
426,3137,2606,-45,-69,7,2024-01-29 16:48:49,0.0
422,3087,2770,-66,-80,1,2024-01-29 16:48:49,0.0
524,3145,2656,-43,-107,13,2024-01-29 16:48:49,0.0
474,3065,2703,-50,-71,2,2024-01-29 16:48:49,0.0
495,3106,2672,-65,-71,12,2024-01-29 16:48:49,0.0
494,3108,2711,-56,-66,6,2024-01-29 16:48:49,0.0
519,3066,2747,-28,-30,-1,2024-01-29 16:48:49,0.0
462,3071,2761,-46,-52,11,2024-01-29 16:48:49,0.0
462,3043,2670,-46,29,2,2024-01-29 16:48:49,0.0
478,3173,2752,-36,-70,17,2024-01-29 16:48:50,0.0
513,3068,2674,-47,8,2,2024-01-29 16:48:50,0.0
520,3082,2708,-20,-37,4,2024-01-29 16:48:50,0.0
509,3046,2719,-50,-39,19,2024-01-29 16:48:50,0.0
496,3082,2671,-59,-2,10,2024-01-29 16:48:50,0.0
505,3116,2626,-56,-5,12,2024-01-29 16:48:50,0.0
487,3042,2717,-56,-15,5,2024-01-29 16:48:50,0.0
520,3139,2690,-53,6,12,2024-01-29 16:48:50,0.0
507,3040,2703,-28,3,5,2024-01-29 16:48:50,0.0
502,3097,2745,-44,-4,10,2024-01-29 16:48:50,0.0
489,3073,2732,-23,7,6,2024-01-29 16:48:50,0.0
453,3056,2665,-27,-13,15,2024-01-29 16:48:50,0.0
470,3106,2721,-14,-9,9,2024-01-29 16:48:50,0.0
496,3110,2676,-44,-18,12,2024-01-29 16:48:50,0.0
501,3076,2621,-42,22,6,2024-01-29 16:48:50,0.0
506,3111,2671,-37,53,15,2024-01-29 16:48:50,0.0
519,3056,2648,-47,-4,-2,2024-01-29 16:48:50,0.0
459,3081,2680,-56,-35,9,2024-01-29 16:48:51,0.0
457,3064,2724,-51,-17,6,2024-01-29 16:48:51,0.0
490,3015,2726,-78,4,8,2024-01-29 16:48:51,0.0
504,3104,2729,-66,-49,12,2024-01-29 16:48:51,0.0
485,3072,2732,-84,-65,-2,2024-01-29 16:48:51,0.0
479,3112,2664,-98,-27,-18,2024-01-29 16:48:51,0.0
475,3044,2762,-84,-7,-5,2024-01-29 16:48:51,0.0
486,3053,2750,-75,-21,-10,2024-01-29 16:48:51,0.0
515,2982,2730,-45,17,-13,2024-01-29 16:48:51,0.0
444,3115,2868,-10,-90,0,2024-01-29 16:48:51,0.0
515,2994,2771,0,-30,-28,2024-01-29 16:48:51,0.0
362,3103,2718,-24,32,46,2024-01-29 16:48:51,0.0
399,3207,2718,-30,-17,22,2024-01-29 16:48:51,0.0
485,3134,2793,-46,-74,21,2024-01-29 16:48:51,0.0
512,3044,2693,-70,-9,8,2024-01-29 16:48:51,0.0
425,3062,2712,-89,-4,12,2024-01-29 16:48:51,0.0
456,3012,2827,-87,-39,-3,2024-01-29 16:48:51,0.0
387,3089,2717,-90,-10,6,2024-01-29 16:48:51,0.0
417,3030,2771,-56,-93,2,2024-01-29 16:48:52,0.0
469,3068,2703,-40,-32,12,2024-01-29 16:48:52,0.0
440,2938,2904,1,-43,-7,2024-01-29 16:48:52,0.0
510,3084,2797,-11,-12,-2,2024-01-29 16:48:52,0.0
431,3024,2651,-48,-10,9,2024-01-29 16:48:52,0.0
459,3086,2753,-53,19,23,2024-01-29 16:48:52,0.0
495,3120,2770,-35,-56,23,2024-01-29 16:48:52,0.0
380,3074,2812,-51,-28,20,2024-01-29 16:48:52,0.0
473,3008,2682,-41,-3,10,2024-01-29 16:48:52,0.0
500,3039,2732,-52,-70,4,2024-01-29 16:48:52,0.0
466,3079,2838,-52,-75,3,2024-01-29 16:48:52,0.0
421,3048,2760,-37,-32,-8,2024-01-29 16:48:52,0.0
431,3037,2750,-67,-46,14,2024-01-29 16:48:52,0.0
472,3073,2785,-22,-33,6,2024-01-29 16:48:52,0.0
432,2995,2718,-33,4,30,2024-01-29 16:48:52,0.0
336,3038,2718,-5,4,59,2024-01-29 16:48:52,
391,2977,2808,12,6,126,2024-01-29 16:48:52,0.0
413,2982,2752,9,-60,121,2024-01-29 16:48:53,0.0
483,3032,3238,217,-167,136,2024-01-29 16:48:53,0.0
502,2515,2683,490,-735,22,2024-01-29 16:48:53,0.0
497,2704,2581,713,-515,220,2024-01-29 16:48:53,0.0
1014,3340,2680,798,-356,377,2024-01-29 16:48:53,0.0
815,3558,1389,739,-280,467,2024-01-29 16:48:53,0.0
828,4286,1988,789,-974,583,2024-01-29 16:48:53,0.0
1564,3958,1438,572,-547,687,2024-01-29 16:48:53,0.0
1715,3967,1498,566,-725,551,2024-01-29 16:48:53,0.0
1756,4265,1507,382,-654,482,2024-01-29 16:48:53,0.0
1632,3966,1539,-4,-731,662,2024-01-29 16:48:53,0.0
1894,3341,1170,-308,-546,826,2024-01-29 16:48:53,0.0
1679,3555,913,-448,-1008,561,2024-01-29 16:48:53,0.0
2145,3017,1413,-655,-758,506,2024-01-29 16:48:53,0.0
2203,3334,1081,-537,-989,500,2024-01-29 16:48:53,0.0
2627,3274,800,-644,-1103,471,2024-01-29 16:48:53,0.0
2942,3063,1033,-741,-1364,491,2024-01-29 16:48:53,0.0
3249,2827,719,-531,-1038,619,2024-01-29 16:48:53,0.0
3209,3372,1090,-631,-1060,506,2024-01-29 16:48:54,0.0
3723,2743,1051,-747,-1348,465,2024-01-29 16:48:54,0.0
4514,2562,566,-290,-1389,252,2024-01-29 16:48:54,0.0
5208,2614,-1402,53,-490,447,2024-01-29 16:48:54,0.0
4473,2814,-557,236,-931,97,2024-01-29 16:48:54,0.0
4339,2590,-27,774,-1060,-95,2024-01-29 16:48:54,0.0
4562,2361,-1613,640,-1027,-776,2024-01-29 16:48:54,0.0
3969,2080,-974,1424,-1444,-1198,2024-01-29 16:48:54,0.0
3038,1981,-949,1504,-2001,-1487,2024-01-29 16:48:54,0.0
1134,139,-2440,2378,-3013,-1483,2024-01-29 16:48:54,0.0
384,1382,-1187,2663,-2694,-615,2024-01-29 16:48:54,0.0
932,1203,-1863,1981,-2408,-67,2024-01-29 16:48:54,0.0
1083,288,-3472,1473,-1491,419,2024-01-29 16:48:54,0.0
541,325,-2064,1007,-554,630,2024-01-29 16:48:54,0.0
955,3641,-4601,50,1109,855,2024-01-29 16:48:54,0.0
-67,1374,-4456,-193,859,819,2024-01-29 16:48:54,0.0
843,3124,-4620,-557,136,640,2024-01-29 16:48:54,0.0
1067,2863,-4575,-333,172,476,2024-01-29 16:48:54,0.0
1314,2479,-3600,-274,-96,124,2024-01-29 16:48:55,0.0
2893,2308,-4391,55,674,424,2024-01-29 16:48:55,0.0
3120,2180,-4989,261,1232,639,2024-01-29 16:48:55,0.0
2921,1814,-3114,732,861,780,2024-01-29 16:48:55,0.0
4661,2567,-3871,697,1071,840,2024-01-29 16:48:55,0.0
4126,3247,-3309,123,976,694,2024-01-29 16:48:55,0.0
3842,896,-2858,269,1949,712,2024-01-29 16:48:55,0.0
2526,-550,-2811,1397,1203,213,2024-01-29 16:48:55,0.0
2313,-1150,-2042,1945,1587,-115,2024-01-29 16:48:55,0.0
1843,-1712,-1718,1338,1030,-84,2024-01-29 16:48:55,0.0
2773,-1421,-2165,846,1577,-218,2024-01-29 16:48:55,0.0
3246,-1343,-1535,691,754,-368,2024-01-29 16:48:55,0.0
3129,-1043,-1435,706,680,-256,2024-01-29 16:48:55,0.0
3544,-1027,-1399,161,308,-499,2024-01-29 16:48:55,0.0
4013,-1462,-1617,533,338,-259,2024-01-29 16:48:55,0.0
4106,-987,-1142,251,147,-210,2024-01-29 16:48:55,0.0
4689,-870,-1356,330,679,70,2024-01-29 16:48:55,0.0
4451,-1706,-988,294,338,-143,2024-01-29 16:48:56,0.0
5204,-552,-1227,343,556,-91,2024-01-29 16:48:56,0.0
4475,-767,-751,212,445,-137,2024-01-29 16:48:56,0.0
3811,-472,-899,105,663,-125,2024-01-29 16:48:56,0.0
3627,-311,-467,29,548,43,2024-01-29 16:48:56,0.0
3598,-435,-428,-136,573,-133,2024-01-29 16:48:56,0.0
3641,0,-653,196,317,157,2024-01-29 16:48:56,0.0
3929,-22,-318,-369,336,-93,2024-01-29 16:48:56,0.0
4418,-180,-251,-412,-94,32,2024-01-29 16:48:56,0.0
4370,-408,-164,-352,187,-156,2024-01-29 16:48:56,0.0
4248,-317,65,-64,178,-76,2024-01-29 16:48:56,0.0
4000,-66,-208,-3,63,-64,2024-01-29 16:48:56,0.0
4667,-284,-328,6,264,-63,2024-01-29 16:48:56,0.0
4246,-460,-4,140,382,8,2024-01-29 16:48:56,0.0
4465,-34,252,182,225,-56,2024-01-29 16:48:56,0.0
4235,-29,167,-10,42,-44,2024-01-29 16:48:56,0.0
4434,-265,247,163,99,-54,2024-01-29 16:48:56,0.0
3927,-139,452,15,-67,2,2024-01-29 16:48:57,0.0
4483,-27,71,-23,-31,-16,2024-01-29 16:48:57,0.0
4464,-437,235,-66,22,5,2024-01-29 16:48:57,0.0
4454,-337,453,98,17,32,2024-01-29 16:48:57,0.0
4272,-50,375,-83,5,-30,2024-01-29 16:48:57,0.0
4337,-437,343,-128,-43,32,2024-01-29 16:48:57,0.0
4268,-67,243,-96,101,-51,2024-01-29 16:48:57,0.0
4370,-352,369,-188,68,44,2024-01-29 16:48:57,0.0
4394,-220,274,-120,55,0,2024-01-29 16:48:57,0.0
4279,-369,427,-107,27,53,2024-01-29 16:48:57,0.0
4354,-223,339,-42,29,27,2024-01-29 16:48:57,0.0
4238,-150,439,-86,4,22,2024-01-29 16:48:57,0.0
4380,-303,367,-76,-56,7,2024-01-29 16:48:57,0.0
4234,-205,450,-70,4,-15,2024-01-29 16:48:57,0.0
4325,-174,461,-63,47,11,2024-01-29 16:48:57,0.0
4334,-352,421,-41,-40,0,2024-01-29 16:48:57,0.0
4404,-297,420,39,-166,1,2024-01-29 16:48:57,0.0
4330,-287,416,31,-172,-10,2024-01-29 16:48:57,0.0
4302,-203,321,61,-117,-13,2024-01-29 16:48:58,0.0
4379,-171,305,24,-156,-11,2024-01-29 16:48:58,0.0
4293,-199,302,11,-113,-27,2024-01-29 16:48:58,0.0
4363,-144,329,-15,-104,-26,2024-01-29 16:48:58,0.0
4285,-162,271,-43,-135,-36,2024-01-29 16:48:58,0.0
4401,-161,228,-27,-136,-30,2024-01-29 16:48:58,0.0
4317,-128,251,-45,-147,-51,2024-01-29 16:48:58,0.0
4409,-204,156,-31,-125,-62,2024-01-29 16:48:58,0.0
4336,-173,149,-25,-102,-69,2024-01-29 16:48:58,0.0
4331,-135,76,-20,-132,-62,2024-01-29 16:48:58,0.0
4307,-62,133,-13,-50,-55,2024-01-29 16:48:58,
4407,-57,114,-34,-84,-44,2024-01-29 16:48:58,0.0
4267,-99,55,-62,-79,-35,2024-01-29 16:48:58,0.0
4371,-100,49,-36,-100,-22,2024-01-29 16:48:58,0.0
4349,-85,52,-21,-73,-6,2024-01-29 16:48:58,0.0
4319,-28,16,-10,-42,20,2024-01-29 16:48:58,0.0
4341,-40,90,-39,42,16,2024-01-29 16:48:58,0.0
4351,-48,49,-44,95,29,2024-01-29 16:48:59,0.0
4381,-34,171,-24,33,14,2024-01-29 16:48:59,0.0
4339,0,82,-69,74,31,2024-01-29 16:48:59,0.0
4314,45,168,-92,16,25,2024-01-29 16:48:59,0.0
4356,-68,101,-83,-5,32,2024-01-29 16:48:59,0.0
4334,-130,204,-95,6,27,2024-01-29 16:48:59,0.0
4380,-68,210,-72,9,20,2024-01-29 16:48:59,0.0
4343,-109,146,-64,32,19,2024-01-29 16:48:59,0.0
4307,-66,239,-81,22,23,2024-01-29 16:48:59,0.0
4352,-96,254,-24,68,22,2024-01-29 16:48:59,0.0
4300,-51,347,-91,-41,34,2024-01-29 16:48:59,0.0
4357,-143,233,-40,-35,30,2024-01-29 16:48:59,0.0
4303,-121,295,-35,96,69,2024-01-29 16:48:59,0.0
4338,-206,314,7,60,59,2024-01-29 16:48:59,0.0
4485,-103,245,8,58,52,2024-01-29 16:48:59,0.0
4276,-102,380,-20,24,19,2024-01-29 16:48:59,0.0
4350,-168,351,0,54,27,2024-01-29 16:48:59,0.0
4326,-97,429,24,20,16,2024-01-29 16:48:59,0.0
4319,-126,350,6,13,22,2024-01-29 16:49:00,0.0
4302,-134,421,-19,44,22,2024-01-29 16:49:00,0.0
4387,-219,439,52,11,27,2024-01-29 16:49:00,0.0
4302,-96,438,42,-21,26,2024-01-29 16:49:00,0.0
4396,-120,258,-21,36,25,2024-01-29 16:49:00,0.0
4401,-112,338,-39,-32,12,2024-01-29 16:49:00,0.0
4249,-171,358,-51,-59,29,2024-01-29 16:49:00,0.0
4351,-155,373,-79,-39,3,2024-01-29 16:49:00,0.0
4246,-133,419,-91,-74,21,2024-01-29 16:49:00,0.0
4340,-195,396,-82,-69,-3,2024-01-29 16:49:00,0.0
4351,-181,324,-75,-112,11,2024-01-29 16:49:00,0.0
4302,-161,360,-58,-131,-2,2024-01-29 16:49:00,0.0
4359,-159,266,-86,-124,-6,2024-01-29 16:49:00,0.0
4278,-166,351,-56,-91,-1,2024-01-29 16:49:00,0.0
4441,-242,209,-53,-97,23,2024-01-29 16:49:00,0.0
4236,-214,285,-54,-42,16,2024-01-29 16:49:00,0.0
4385,-181,253,-50,-72,9,2024-01-29 16:49:00,0.0
4299,-194,207,-39,-71,-8,2024-01-29 16:49:01,0.0
4356,-133,170,-38,-14,-6,2024-01-29 16:49:01,0.0
4352,-151,280,-45,23,10,2024-01-29 16:49:01,0.0
4306,-110,306,-22,-77,16,2024-01-29 16:49:01,0.0
4403,-143,290,-11,-60,26,2024-01-29 16:49:01,0.0
4410,-169,101,-62,-36,35,2024-01-29 16:49:01,0.0
4325,-100,297,-54,67,36,2024-01-29 16:49:01,0.0
4392,-216,276,-48,28,15,2024-01-29 16:49:01,0.0
4274,-206,395,-16,-47,4,2024-01-29 16:49:01,0.0
4374,-127,278,-42,-52,-7,2024-01-29 16:49:01,0.0
4315,-178,276,-51,-56,-10,2024-01-29 16:49:01,0.0
4372,-147,168,-41,-39,-16,2024-01-29 16:49:01,0.0
4300,-152,272,-60,8,1,2024-01-29 16:49:01,0.0
4343,-145,288,-47,2,7,2024-01-29 16:49:01,0.0
4250,-136,298,-73,12,9,2024-01-29 16:49:01,0.0
4263,-131,353,-50,-16,9,2024-01-29 16:49:01,0.0
4333,-128,241,-75,50,19,2024-01-29 16:49:01,0.0
4331,-163,266,-60,-59,8,2024-01-29 16:49:01,0.0
4388,-180,213,-45,-40,14,2024-01-29 16:49:02,0.0
4289,-184,309,-56,-12,20,2024-01-29 16:49:02,0.0
4326,-137,252,-71,-37,15,2024-01-29 16:49:02,0.0
4341,-211,278,-50,-12,32,2024-01-29 16:49:02,0.0
4296,-118,322,-48,-27,27,2024-01-29 16:49:02,0.0
4366,-217,235,-54,-50,28,2024-01-29 16:49:02,0.0
4426,-206,347,-15,-42,23,2024-01-29 16:49:02,0.0
4379,-206,255,-22,-13,16,2024-01-29 16:49:02,0.0
4369,-184,371,-12,-84,11,2024-01-29 16:49:02,0.0
4257,-198,250,10,-36,12,2024-01-29 16:49:02,0.0
4375,-168,306,-24,-15,-2,2024-01-29 16:49:02,0.0
4338,-200,302,-33,-30,2,2024-01-29 16:49:02,0.0
4345,-186,226,-35,9,3,2024-01-29 16:49:02,0.0
4326,-163,330,-27,-19,7,2024-01-29 16:49:02,0.0
4338,-223,262,-52,18,-2,2024-01-29 16:49:02,0.0
4302,-177,323,-38,-16,-6,2024-01-29 16:49:02,0.0
4228,-140,229,-52,7,13,2024-01-29 16:49:02,0.0
4336,-197,164,-118,137,38,2024-01-29 16:49:03,0.0
4307,-209,452,-63,28,9,2024-01-29 16:49:03,0.0
4292,-201,373,-58,-34,18,2024-01-29 16:49:03,0.0
4341,-263,346,-68,-11,1,2024-01-29 16:49:03,0.0
4341,-182,420,-46,-95,6,2024-01-29 16:49:03,0.0
4276,-164,319,-69,-60,-4,2024-01-29 16:49:03,0.0
4352,-216,361,-61,-44,1,2024-01-29 16:49:03,0.0
4312,-160,341,-49,-75,17,2024-01-29 16:49:03,0.0
4381,-276,382,-43,-63,15,2024-01-29 16:49:03,0.0
4355,-219,461,65,24,29,2024-01-29 16:49:03,0.0
4400,-85,434,-45,20,18,2024-01-29 16:49:03,0.0
4337,-126,356,-74,29,-9,2024-01-29 16:49:03,0.0
4303,-215,418,-61,65,33,2024-01-29 16:49:03,0.0
4332,-169,402,-33,15,-1,2024-01-29 16:49:03,0.0
4315,-186,339,-86,11,18,2024-01-29 16:49:03,0.0
4329,-240,418,-43,1,18,2024-01-29 16:49:03,0.0
4278,-206,354,-66,44,20,2024-01-29 16:49:03,0.0
4395,-131,347,-89,-12,15,2024-01-29 16:49:03,0.0
4246,-231,460,-70,4,20,2024-01-29 16:49:04,0.0
4301,-272,422,-46,-26,11,2024-01-29 16:49:04,0.0
4365,-197,327,-40,44,13,2024-01-29 16:49:04,0.0
4267,-218,590,-44,-117,7,2024-01-29 16:49:04,0.0
4332,-177,299,-36,-66,10,2024-01-29 16:49:04,0.0
4292,-206,481,-34,-131,6,2024-01-29 16:49:04,
4359,-255,377,-47,-152,-1,2024-01-29 16:49:04,0.0
4358,-201,353,-43,-101,-6,2024-01-29 16:49:04,0.0
4395,-275,286,-34,-56,0,2024-01-29 16:49:04,0.0
4341,-223,298,-15,-51,-9,2024-01-29 16:49:04,0.0
4294,-206,335,8,-61,-7,2024-01-29 16:49:04,0.0
4378,-214,294,27,-102,-7,2024-01-29 16:49:04,0.0
4271,-116,226,4,-70,8,2024-01-29 16:49:04,0.0
4378,-239,231,-6,-9,1,2024-01-29 16:49:04,0.0
4291,-155,253,15,27,-1,2024-01-29 16:49:04,0.0
4320,-172,364,-18,26,-6,2024-01-29 16:49:04,0.0
4304,-189,304,-24,-23,-7,2024-01-29 16:49:04,0.0
4415,-142,286,-41,60,-13,2024-01-29 16:49:05,0.0
4259,-209,465,-46,-28,-14,2024-01-29 16:49:05,0.0
4348,-192,290,-31,50,-28,2024-01-29 16:49:05,0.0
4356,-58,398,-76,14,-3,2024-01-29 16:49:05,0.0
4285,-180,402,-67,-58,3,2024-01-29 16:49:05,0.0
4284,-126,356,-79,-3,10,2024-01-29 16:49:05,0.0
4368,-143,359,-88,48,13,2024-01-29 16:49:05,0.0
4320,-192,455,-56,-29,18,2024-01-29 16:49:05,0.0
4349,-131,346,-63,-1,15,2024-01-29 16:49:05,0.0
4302,-156,403,-32,-49,17,2024-01-29 16:49:05,0.0
4358,-169,424,-93,-38,28,2024-01-29 16:49:05,0.0
4263,-212,390,-68,-49,18,2024-01-29 16:49:05,0.0
4375,-221,336,-68,-46,27,2024-01-29 16:49:05,0.0
4302,-161,407,-62,-85,10,2024-01-29 16:49:05,0.0
4148,-99,268,-147,-167,12,2024-01-29 16:49:05,0.0
4232,326,70,-392,-305,-9,2024-01-29 16:49:05,0.0
4431,225,73,-483,-143,-9,2024-01-29 16:49:05,0.0
4436,553,104,-655,-88,-74,2024-01-29 16:49:05,0.0
4397,711,51,-996,-129,-120,2024-01-29 16:49:06,0.0
4234,335,-350,-1284,-415,-199,2024-01-29 16:49:06,0.0
3263,-385,-726,-1477,-403,-433,2024-01-29 16:49:06,0.0
4239,-214,51,-2177,189,-573,2024-01-29 16:49:06,0.0
5075,-853,-424,-2432,180,-675,2024-01-29 16:49:06,0.0
5536,-1366,-393,-1561,712,-807,2024-01-29 16:49:06,0.0
4337,-238,521,-1022,860,-894,2024-01-29 16:49:06,0.0
4018,-684,335,-567,1161,-955,2024-01-29 16:49:06,0.0
2223,-92,599,-450,666,-1065,2024-01-29 16:49:06,0.0
1716,-1271,494,489,-589,-1009,2024-01-29 16:49:06,0.0
2102,220,-494,729,906,-1314,2024-01-29 16:49:06,0.0
2249,1186,229,807,390,-1066,2024-01-29 16:49:06,0.0
2638,559,608,470,851,-1008,2024-01-29 16:49:06,0.0
1898,656,791,-37,918,-909,2024-01-29 16:49:06,0.0
2510,-27,168,165,496,-910,2024-01-29 16:49:06,0.0
1595,494,-158,426,497,-948,2024-01-29 16:49:06,0.0
509,111,529,337,372,-936,2024-01-29 16:49:06,0.0
8052,9873,9894,-806,1957,-1722,2024-01-29 16:49:07,0.0
6028,6930,1842,201,2360,-6202,2024-01-29 16:49:07,0.0
675,7162,-8,1084,971,-1201,2024-01-29 16:49:07,0.0
1151,1225,2337,1061,1643,47,2024-01-29 16:49:07,0.0
-2122,4784,359,582,633,-361,2024-01-29 16:49:07,0.0
-3563,1755,-164,-102,316,-344,2024-01-29 16:49:07,0.0
-49,2091,1338,-205,-294,288,2024-01-29 16:49:07,0.0
-1380,4202,400,-288,381,355,2024-01-29 16:49:07,0.0
-303,4342,1710,-506,-448,1196,2024-01-29 16:49:07,0.0
327,3764,1657,232,-155,972,2024-01-29 16:49:07,0.0
1993,4289,2099,252,-203,981,2024-01-29 16:49:07,0.0
1197,3649,808,557,-226,434,2024-01-29 16:49:07,0.0
1732,3143,1164,312,22,134,2024-01-29 16:49:07,0.0
1157,3783,646,221,-179,-223,2024-01-29 16:49:07,0.0
1118,4358,531,20,-177,-449,2024-01-29 16:49:07,0.0
776,4124,958,-144,-111,-495,2024-01-29 16:49:07,0.0
489,3931,979,-118,-26,-351,2024-01-29 16:49:07,0.0
281,3840,1070,-69,-63,-142,2024-01-29 16:49:07,0.0
431,3790,1026,43,-31,149,2024-01-29 16:49:08,0.0
634,4020,863,71,60,202,2024-01-29 16:49:08,0.0
650,3946,902,-28,-6,264,2024-01-29 16:49:08,0.0
872,3992,907,-45,-13,264,2024-01-29 16:49:08,0.0
1012,3834,1033,-20,-64,112,2024-01-29 16:49:08,0.0
914,3887,956,27,-28,-38,2024-01-29 16:49:08,0.0
824,3906,760,7,-79,-140,2024-01-29 16:49:08,0.0
787,3985,851,-19,-88,-123,2024-01-29 16:49:08,0.0
664,3890,990,10,-73,-75,2024-01-29 16:49:08,0.0
746,4067,713,33,-25,28,2024-01-29 16:49:08,0.0
734,3890,945,-103,-133,52,2024-01-29 16:49:08,0.0
768,3978,873,-4,-73,73,2024-01-29 16:49:08,0.0
838,3937,768,-72,-61,16,2024-01-29 16:49:08,0.0
805,3892,840,-94,-79,0,2024-01-29 16:49:08,0.0
757,3880,976,-64,-76,13,2024-01-29 16:49:08,0.0
796,3924,793,-91,8,-10,2024-01-29 16:49:08,0.0
738,3882,996,-49,-80,-19,2024-01-29 16:49:08,0.0
772,3906,826,-38,-11,-9,2024-01-29 16:49:09,0.0
756,3946,912,-80,2,36,2024-01-29 16:49:09,0.0
774,3910,965,-49,-25,28,2024-01-29 16:49:09,0.0
809,3945,876,-87,-25,16,2024-01-29 16:49:09,0.0
783,3915,941,-67,-26,-4,2024-01-29 16:49:09,0.0
772,3915,879,-50,-26,-2,2024-01-29 16:49:09,0.0
788,3918,913,-72,-7,2,2024-01-29 16:49:09,0.0
713,3892,950,-61,-44,5,2024-01-29 16:49:09,0.0
763,3948,832,-79,20,47,2024-01-29 16:49:09,0.0
770,3930,855,-132,21,34,2024-01-29 16:49:09,0.0
783,3888,979,-106,-27,25,2024-01-29 16:49:09,0.0
815,3904,1016,-82,-27,17,2024-01-29 16:49:09,0.0
775,3900,979,-80,-27,3,2024-01-29 16:49:09,0.0
785,3885,1029,-69,-18,13,2024-01-29 16:49:09,0.0
788,3905,1012,-36,-14,14,2024-01-29 16:49:09,0.0
808,3884,1017,-9,-11,25,2024-01-29 16:49:09,0.0
774,3904,964,-25,2,10,2024-01-29 16:49:09,0.0
788,3891,1020,-29,-29,24,2024-01-29 16:49:10,0.0
821,3892,943,-4,-20,1,2024-01-29 16:49:10,
788,3912,877,-43,27,4,2024-01-29 16:49:10,0.0
832,3926,1060,-61,-62,-4,2024-01-29 16:49:10,0.0
777,3903,990,-23,-44,1,2024-01-29 16:49:10,0.0
770,3892,998,-57,-51,17,2024-01-29 16:49:10,0.0
794,3907,1026,-35,-40,19,2024-01-29 16:49:10,0.0
811,3900,1038,43,-39,23,2024-01-29 16:49:10,0.0
811,3901,877,55,-69,21,2024-01-29 16:49:10,0.0
811,3950,947,7,-57,13,2024-01-29 16:49:10,0.0
787,3899,905,12,-79,34,2024-01-29 16:49:10,0.0
820,3900,882,13,-85,27,2024-01-29 16:49:10,0.0
871,3938,811,-39,-19,-10,2024-01-29 16:49:10,0.0
770,3849,967,42,-88,-38,2024-01-29 16:49:10,0.0
788,3970,684,-45,-54,21,2024-01-29 16:49:10,0.0
786,3925,892,-63,-173,28,2024-01-29 16:49:10,0.0
789,3839,1031,-16,-64,51,2024-01-29 16:49:10,0.0
857,3905,801,75,-15,61,2024-01-29 16:49:10,0.0
874,3900,794,64,-91,45,2024-01-29 16:49:11,0.0
899,3937,738,21,-8,49,2024-01-29 16:49:11,0.0
903,3942,801,-13,-23,34,2024-01-29 16:49:11,0.0
913,3949,710,-23,-42,4,2024-01-29 16:49:11,0.0
852,3870,851,-46,-36,-10,2024-01-29 16:49:11,0.0
851,3898,691,-38,-20,-20,2024-01-29 16:49:11,0.0
823,3939,773,-71,-42,-8,2024-01-29 16:49:11,0.0
860,3924,806,-84,-17,17,2024-01-29 16:49:11,0.0
877,3927,736,-90,-11,36,2024-01-29 16:49:11,0.0
878,3925,900,-103,-22,30,2024-01-29 16:49:11,0.0
889,3916,754,-106,-11,41,2024-01-29 16:49:11,0.0
907,3935,876,-101,-27,19,2024-01-29 16:49:11,0.0
935,3939,839,-104,-23,1,2024-01-29 16:49:11,0.0
848,3894,801,-119,-35,9,2024-01-29 16:49:11,0.0
886,3904,909,-133,-30,8,2024-01-29 16:49:11,0.0
857,3853,895,-86,-58,-4,2024-01-29 16:49:11,0.0
877,3889,909,-97,-6,6,2024-01-29 16:49:11,0.0
867,3907,936,-130,17,16,2024-01-29 16:49:11,0.0
880,3878,1039,-66,-25,21,2024-01-29 16:49:12,0.0
874,3924,927,-51,-28,13,2024-01-29 16:49:12,0.0
870,3860,920,-83,-35,21,2024-01-29 16:49:12,0.0
865,3927,939,-100,-6,16,2024-01-29 16:49:12,0.0
898,3888,1016,-84,-46,11,2024-01-29 16:49:12,0.0
909,3864,1036,-69,-32,9,2024-01-29 16:49:12,0.0
904,3885,1027,-31,-43,5,2024-01-29 16:49:12,0.0
899,3898,1004,9,-50,3,2024-01-29 16:49:12,0.0
883,3886,931,29,-60,3,2024-01-29 16:49:12,0.0
890,3897,920,-21,-14,4,2024-01-29 16:49:12,0.0
843,3885,973,-74,-23,4,2024-01-29 16:49:12,0.0
894,3851,998,-10,-14,-7,2024-01-29 16:49:12,0.0
896,3905,929,-22,-30,2,2024-01-29 16:49:12,0.0
859,3863,979,-10,-77,-8,2024-01-29 16:49:12,0.0
885,3928,908,-52,-22,6,2024-01-29 16:49:12,0.0
872,3886,914,-43,-50,-6,2024-01-29 16:49:12,0.0
866,3835,945,-35,-44,-21,2024-01-29 16:49:12,0.0
854,3913,958,-12,-37,-5,2024-01-29 16:49:13,0.0
818,3853,964,-4,-72,0,2024-01-29 16:49:13,0.0
861,3915,884,30,-33,-4,2024-01-29 16:49:13,0.0
830,3881,825,39,-15,-9,2024-01-29 16:49:13,0.0
911,3984,740,79,-26,-20,2024-01-29 16:49:13,0.0
787,3865,811,-127,276,-74,2024-01-29 16:49:13,0.0
705,3875,923,-15,32,27,2024-01-29 16:49:13,0.0
872,3885,848,-22,69,0,2024-01-29 16:49:13,0.0
726,3885,930,-45,-23,11,2024-01-29 16:49:13,0.0
851,3943,884,-46,-41,5,2024-01-29 16:49:13,0.0
796,3961,888,-51,-24,4,2024-01-29 16:49:13,0.0
836,3927,903,-65,-35,15,2024-01-29 16:49:13,0.0
773,3877,884,-58,-44,12,2024-01-29 16:49:13,0.0
823,3919,896,-58,-46,14,2024-01-29 16:49:13,0.0
754,3912,826,-68,-21,27,2024-01-29 16:49:13,0.0
827,3921,885,-37,-69,40,2024-01-29 16:49:13,0.0
810,3875,837,-59,-18,12,2024-01-29 16:49:13,0.0
787,3895,934,-48,-66,31,2024-01-29 16:49:14,0.0
857,3913,878,-88,-28,22,2024-01-29 16:49:14,0.0
814,3907,939,-78,-54,38,2024-01-29 16:49:14,0.0
895,3887,887,-59,-55,31,2024-01-29 16:49:14,0.0
848,3896,1002,-81,-49,23,2024-01-29 16:49:14,0.0
851,3889,925,-57,-26,32,2024-01-29 16:49:14,0.0
862,3910,918,-91,-28,15,2024-01-29 16:49:14,0.0
862,3914,1002,-103,-33,28,2024-01-29 16:49:14,0.0
892,3901,1004,-85,-65,22,2024-01-29 16:49:14,0.0
892,3894,917,-101,-22,19,2024-01-29 16:49:14,0.0
866,3907,1103,-125,-90,7,2024-01-29 16:49:14,0.0
866,3853,1016,-87,-40,15,2024-01-29 16:49:14,0.0
882,3861,1007,-72,-30,19,2024-01-29 16:49:14,0.0
882,3834,1085,-64,-62,13,2024-01-29 16:49:14,0.0
872,3889,1042,-62,-26,23,2024-01-29 16:49:14,0.0
928,3904,1043,-62,-23,10,2024-01-29 16:49:14,0.0
888,3863,1043,-49,-30,4,2024-01-29 16:49:14,0.0
901,3875,1065,-53,-28,5,2024-01-29 16:49:14,0.0
903,3871,1096,-37,-26,12,2024-01-29 16:49:15,0.0
883,3881,1061,-42,-17,14,2024-01-29 16:49:15,0.0
861,3882,1040,-50,-25,12,2024-01-29 16:49:15,0.0
913,3863,1039,-49,-26,11,2024-01-29 16:49:15,0.0
911,3828,1100,-18,-40,-7,2024-01-29 16:49:15,0.0
884,3848,968,-25,-16,6,2024-01-29 16:49:15,0.0
854,3876,1023,-23,-23,-15,2024-01-29 16:49:15,0.0
863,3819,969,22,-40,-15,2024-01-29 16:49:15,0.0
842,3907,963,12,-41,-11,2024-01-29 16:49:15,0.0
864,3862,1004,23,-58,11,2024-01-29 16:49:15,0.0
861,3878,970,-12,-43,10,2024-01-29 16:49:15,0.0
882,3916,947,15,-31,-5,2024-01-29 16:49:15,0.0
853,3878,940,-6,-41,-2,2024-01-29 16:49:15,0.0
875,3897,942,2,-18,-7,2024-01-29 16:49:15,
852,3898,931,20,-48,-10,2024-01-29 16:49:15,0.0
896,3936,919,45,-69,-8,2024-01-29 16:49:15,0.0
827,3932,926,17,-10,7,2024-01-29 16:49:15,0.0
901,3905,857,42,-56,-19,2024-01-29 16:49:15,0.0
806,3948,872,-2,-5,-3,2024-01-29 16:49:16,0.0
872,3924,795,-14,4,20,2024-01-29 16:49:16,0.0
873,3968,800,-46,-11,19,2024-01-29 16:49:16,0.0
886,3948,882,-61,-25,14,2024-01-29 16:49:16,0.0
876,3927,895,-76,-11,0,2024-01-29 16:49:16,0.0
834,3903,902,-76,-19,-3,2024-01-29 16:49:16,0.0
833,3906,915,-40,-19,21,2024-01-29 16:49:16,0.0
855,3961,840,-59,-17,15,2024-01-29 16:49:16,0.0
857,3905,870,-83,-23,26,2024-01-29 16:49:16,0.0
866,3918,893,-115,-21,25,2024-01-29 16:49:16,0.0
838,3882,930,-117,-15,16,2024-01-29 16:49:16,0.0
865,3889,918,-98,-5,14,2024-01-29 16:49:16,0.0
844,3926,935,-82,0,0,2024-01-29 16:49:16,0.0
850,3892,882,-125,41,17,2024-01-29 16:49:16,0.0
869,3879,1027,-108,-45,24,2024-01-29 16:49:16,0.0
845,3911,1077,-86,-36,23,2024-01-29 16:49:16,0.0
902,3860,1065,-84,-8,28,2024-01-29 16:49:16,0.0
884,3856,1056,-62,-17,22,2024-01-29 16:49:17,0.0
857,3892,1049,-58,-37,12,2024-01-29 16:49:17,0.0
875,3863,1064,-59,-28,20,2024-01-29 16:49:17,0.0
864,3879,1044,-40,-24,0,2024-01-29 16:49:17,0.0
860,3851,1067,-51,-19,22,2024-01-29 16:49:17,0.0
899,3834,1065,-36,-21,10,2024-01-29 16:49:17,0.0
841,3859,1061,-17,-33,9,2024-01-29 16:49:17,0.0
880,3862,964,-4,12,0,2024-01-29 16:49:17,0.0
868,3870,1095,21,-32,-10,2024-01-29 16:49:17,0.0
883,3894,960,11,0,-7,2024-01-29 16:49:17,0.0
935,3848,1052,73,183,-28,2024-01-29 16:49:17,0.0
542,3610,1315,234,204,35,2024-01-29 16:49:17,0.0
637,3978,856,286,135,206,2024-01-29 16:49:17,0.0
256,4166,1018,565,-700,426,2024-01-29 16:49:17,0.0
1595,3723,779,395,-393,590,2024-01-29 16:49:17,0.0
1287,4103,86,203,58,453,2024-01-29 16:49:17,0.0
966,4180,227,32,-178,644,2024-01-29 16:49:17,0.0
1154,4068,301,-419,-1368,577,2024-01-29 16:49:17,0.0
1681,4260,577,-75,-494,378,2024-01-29 16:49:18,0.0
1520,4539,510,6,-229,326,2024-01-29 16:49:18,0.0
1925,4459,533,-898,-328,627,2024-01-29 16:49:18,0.0
1806,3389,576,-1041,-341,813,2024-01-29 16:49:18,0.0
1693,3677,922,-801,-763,834,2024-01-29 16:49:18,0.0
2473,2513,864,-752,-749,691,2024-01-29 16:49:18,0.0
2150,2993,1008,-729,-1110,602,2024-01-29 16:49:18,0.0
2283,2823,944,-574,-1145,640,2024-01-29 16:49:18,0.0
3123,3367,751,-634,-987,700,2024-01-29 16:49:18,0.0
3158,3895,673,-892,-1208,660,2024-01-29 16:49:18,0.0
3800,2983,1285,-1369,-1288,678,2024-01-29 16:49:18,0.0
5036,2462,-583,-900,-1517,545,2024-01-29 16:49:18,0.0
4826,2117,166,-528,-2005,289,2024-01-29 16:49:18,0.0
4493,3076,-1684,-277,-367,140,2024-01-29 16:49:18,0.0
4267,1249,-10,7,-1155,-451,2024-01-29 16:49:18,0.0
3987,2755,-1058,649,-646,-712,2024-01-29 16:49:18,0.0
3360,2834,-888,1005,-1136,-835,2024-01-29 16:49:18,0.0
3452,2148,-1166,1022,-1186,-1021,2024-01-29 16:49:19,0.0
2946,2255,-1406,1602,-1771,-864,2024-01-29 16:49:19,0.0
1599,1886,-1099,1507,-2165,-942,2024-01-29 16:49:19,0.0
1591,600,-1938,1790,-2198,-273,2024-01-29 16:49:19,0.0
542,2576,-1145,1853,-2143,-152,2024-01-29 16:49:19,0.0
750,-263,-2603,1289,-1659,563,2024-01-29 16:49:19,0.0
129,708,-3091,1061,-916,1290,2024-01-29 16:49:19,0.0
1205,1879,-2913,846,-248,1270,2024-01-29 16:49:19,0.0
766,1710,-3331,-452,697,1168,2024-01-29 16:49:19,0.0
1268,2310,-4513,-461,1015,1198,2024-01-29 16:49:19,0.0
1265,2178,-4543,-284,816,640,2024-01-29 16:49:19,0.0
1649,3140,-4110,-392,-99,211,2024-01-29 16:49:19,0.0
2693,1901,-3909,544,-150,57,2024-01-29 16:49:19,0.0
3407,2059,-4085,633,196,109,2024-01-29 16:49:19,0.0
3637,1681,-4499,550,492,384,2024-01-29 16:49:19,0.0
3703,1363,-3488,498,1030,540,2024-01-29 16:49:19,0.0
4211,1320,-3595,345,898,488,2024-01-29 16:49:19,0.0
4031,1529,-3333,219,1143,496,2024-01-29 16:49:19,0.0
3915,1772,-2622,229,862,517,2024-01-29 16:49:20,0.0
3475,1104,-2275,44,797,583,2024-01-29 16:49:20,0.0
3362,945,-1917,403,1059,378,2024-01-29 16:49:20,0.0
1908,-903,-2300,794,982,95,2024-01-29 16:49:20,0.0
2299,-1312,-2347,1385,1364,306,2024-01-29 16:49:20,0.0
2872,-1389,-1804,687,783,-194,2024-01-29 16:49:20,0.0
2832,-1041,-2276,582,665,-93,2024-01-29 16:49:20,0.0
3412,-894,-1734,455,570,-297,2024-01-29 16:49:20,0.0
3325,-1508,-1356,695,288,-186,2024-01-29 16:49:20,0.0
3637,-1288,-1666,566,463,-305,2024-01-29 16:49:20,0.0
3865,-1400,-1411,778,558,-185,2024-01-29 16:49:20,0.0
4123,-1111,-1368,594,284,-306,2024-01-29 16:49:20,0.0
4137,-988,-1291,562,390,-242,2024-01-29 16:49:20,0.0
4191,-661,-782,157,498,-411,2024-01-29 16:49:20,0.0
4709,-209,-910,-167,1001,-293,2024-01-29 16:49:20,0.0
4150,-773,-536,-335,981,-344,2024-01-29 16:49:20,0.0
4560,-1197,-774,-32,474,-170,2024-01-29 16:49:20,0.0
4695,-352,-652,-26,497,-202,2024-01-29 16:49:21,0.0
3707,-1141,-215,92,774,-167,2024-01-29 16:49:21,0.0
3865,254,-278,298,319,-135,2024-01-29 16:49:21,0.0
3625,-60,-195,-17,598,-103,2024-01-29 16:49:21,0.0
4050,-330,-109,41,534,-85,2024-01-29 16:49:21,0.0
3973,486,-141,-328,444,-223,2024-01-29 16:49:21,0.0
4732,640,627,-177,322,-97,2024-01-29 16:49:21,0.0
4833,590,697,-317,266,-118,2024-01-29 16:49:21,0.0
4855,62,845,-183,165,-12,2024-01-29 16:49:21,
4072,153,743,57,-124,133,2024-01-29 16:49:21,0.0
4100,529,826,199,8,83,2024-01-29 16:49:21,0.0
4222,2,581,466,82,215,2024-01-29 16:49:21,0.0
4385,247,397,385,-98,45,2024-01-29 16:49:21,0.0
4687,-98,522,343,12,93,2024-01-29 16:49:21,0.0
3940,81,588,322,46,27,2024-01-29 16:49:21,0.0
4293,196,640,196,-218,105,2024-01-29 16:49:21,0.0
4318,-232,545,181,-154,62,2024-01-29 16:49:21,0.0
4271,-81,488,149,-225,128,2024-01-29 16:49:22,0.0
4478,-438,266,257,-52,73,2024-01-29 16:49:22,0.0
4317,-185,419,218,-57,70,2024-01-29 16:49:22,0.0
4169,-115,189,266,-212,93,2024-01-29 16:49:22,0.0
4367,-151,442,198,-135,85,2024-01-29 16:49:22,0.0
4283,67,367,41,-142,66,2024-01-29 16:49:22,0.0
4466,-230,233,-62,-138,125,2024-01-29 16:49:22,0.0
4240,-313,357,45,-73,104,2024-01-29 16:49:22,0.0
4405,-280,299,86,2,129,2024-01-29 16:49:22,0.0
4345,-239,325,88,-11,82,2024-01-29 16:49:22,0.0
4259,-182,395,20,20,139,2024-01-29 16:49:22,0.0
4187,-220,354,26,-57,73,2024-01-29 16:49:22,0.0
4302,-334,206,40,29,47,2024-01-29 16:49:22,0.0
4428,-322,372,71,28,20,2024-01-29 16:49:22,0.0
4272,-100,227,-131,-163,174,2024-01-29 16:49:22,0.0
4231,-290,319,-86,-392,85,2024-01-29 16:49:22,0.0
4198,-278,418,-37,-368,84,2024-01-29 16:49:22,0.0
4729,-522,97,-108,-81,165,2024-01-29 16:49:22,0.0
3946,-231,13,10,167,-154,2024-01-29 16:49:23,0.0
4346,-427,357,1,159,-238,2024-01-29 16:49:23,0.0
4329,-232,339,24,154,-175,2024-01-29 16:49:23,0.0
4489,-537,381,-9,73,20,2024-01-29 16:49:23,0.0
4496,-274,301,78,214,3,2024-01-29 16:49:23,0.0
4094,-115,709,-55,-82,26,2024-01-29 16:49:23,0.0
4371,-247,226,-17,272,117,2024-01-29 16:49:23,0.0
4383,-346,399,85,114,47,2024-01-29 16:49:23,0.0
4265,-230,321,124,141,62,2024-01-29 16:49:23,0.0
4317,-257,472,126,48,34,2024-01-29 16:49:23,0.0
4376,-12,508,53,46,14,2024-01-29 16:49:23,0.0
4351,-108,565,-61,54,4,2024-01-29 16:49:23,0.0
4349,-78,561,-184,-40,75,2024-01-29 16:49:23,0.0
4209,-409,415,-70,-81,-66,2024-01-29 16:49:23,0.0
4170,-247,444,-99,8,-11,2024-01-29 16:49:23,0.0
4388,-391,425,-12,264,22,2024-01-29 16:49:23,0.0
4247,-223,443,11,161,-95,2024-01-29 16:49:23,0.0
4514,-294,671,-74,122,34,2024-01-29 16:49:24,0.0
4202,-255,739,-102,51,57,2024-01-29 16:49:24,0.0
4222,-355,822,-14,-104,-3,2024-01-29 16:49:24,0.0
4228,-225,647,-98,-55,70,2024-01-29 16:49:24,0.0
4333,-279,662,10,-64,67,2024-01-29 16:49:24,0.0
4299,-335,744,-37,-57,82,2024-01-29 16:49:24,0.0
4218,-309,702,-2,-74,65,2024-01-29 16:49:24,0.0
4304,-335,659,28,-141,38,2024-01-29 16:49:24,0.0
4276,-257,626,3,-93,60,2024-01-29 16:49:24,0.0
4308,-329,601,-2,-51,40,2024-01-29 16:49:24,0.0
4272,-301,549,1,17,5,2024-01-29 16:49:24,0.0
4278,-299,617,-32,-59,19,2024-01-29 16:49:24,0.0
4261,-323,697,-22,-51,-9,2024-01-29 16:49:24,0.0
4329,-302,545,-22,10,-6,2024-01-29 16:49:24,0.0
4288,-294,610,-45,16,-28,2024-01-29 16:49:24,0.0
4327,-282,613,-47,-12,1,2024-01-29 16:49:24,0.0
4326,-361,621,-41,40,-13,2024-01-29 16:49:24,0.0
4236,-271,598,-65,46,-7,2024-01-29 16:49:24,0.0
4315,-343,699,-29,-40,-2,2024-01-29 16:49:25,0.0
4223,-317,703,-52,-14,1,2024-01-29 16:49:25,0.0
4320,-308,648,-35,19,2,2024-01-29 16:49:25,0.0
4303,-284,720,-24,9,4,2024-01-29 16:49:25,0.0
4305,-298,584,-48,86,15,2024-01-29 16:49:25,0.0
4196,-274,676,-69,31,-3,2024-01-29 16:49:25,0.0
4220,-305,844,-47,51,0,2024-01-29 16:49:25,0.0
4318,-253,722,-48,25,4,2024-01-29 16:49:25,0.0
4225,-260,840,-84,-5,5,2024-01-29 16:49:25,0.0
4282,-274,687,-66,-53,5,2024-01-29 16:49:25,0.0
4289,-318,786,-59,36,12,2024-01-29 16:49:25,0.0
4244,-300,677,-80,-29,-1,2024-01-29 16:49:25,0.0
4344,-313,743,-68,-17,-6,2024-01-29 16:49:25,0.0
4278,-294,784,-74,15,-10,2024-01-29 16:49:25,0.0
4272,-275,776,-88,9,-5,2024-01-29 16:49:25,0.0
4246,-309,776,-88,24,-4,2024-01-29 16:49:25,0.0
4246,-298,681,-95,12,6,2024-01-29 16:49:25,0.0
4310,-333,879,-86,1,0,2024-01-29 16:49:26,0.0
4171,-318,798,-84,-10,1,2024-01-29 16:49:26,0.0
4188,-350,903,-10,-4,9,2024-01-29 16:49:26,0.0
4327,-321,796,-36,-111,-17,2024-01-29 16:49:26,0.0
4254,-219,745,-28,-87,-4,2024-01-29 16:49:26,0.0
4199,-242,803,-53,-82,3,2024-01-29 16:49:26,0.0
4293,-311,694,-86,-104,-1,2024-01-29 16:49:26,0.0
4283,-283,763,-119,-67,6,2024-01-29 16:49:26,0.0
4244,-238,736,-76,-119,5,2024-01-29 16:49:26,0.0
4340,-298,618,-106,-122,-8,2024-01-29 16:49:26,0.0
4198,-363,706,-52,-91,21,2024-01-29 16:49:26,0.0
4289,-284,612,-37,-107,7,2024-01-29 16:49:26,0.0
4243,-250,625,-71,-140,10,2024-01-29 16:49:26,0.0
4305,-302,626,-92,-46,9,2024-01-29 16:49:26,0.0
4296,-318,637,-46,-10,19,2024-01-29 16:49:26,0.0
4301,-291,636,-55,5,11,2024-01-29 16:49:26,0.0
4182,-342,572,-63,-2,-14,2024-01-29 16:49:26,0.0
4283,-230,541,-35,-22,-5,2024-01-29 16:49:26,0.0
4331,-300,597,-58,-19,-11,2024-01-29 16:49:27,0.0
4285,-280,560,-52,-22,2,2024-01-29 16:49:27,0.0
4325,-288,639,-34,-34,-4,2024-01-29 16:49:27,0.0
4323,-272,543,-57,8,-1,2024-01-29 16:49:27,
4285,-296,594,-36,-4,-2,2024-01-29 16:49:27,0.0
4268,-323,620,-45,-33,1,2024-01-29 16:49:27,0.0
4282,-291,563,-57,40,-8,2024-01-29 16:49:27,0.0
4246,-269,656,-36,-7,-3,2024-01-29 16:49:27,0.0
4310,-243,510,-47,31,8,2024-01-29 16:49:27,0.0
4315,-291,730,-51,-7,-10,2024-01-29 16:49:27,0.0
4270,-261,603,-46,-22,7,2024-01-29 16:49:27,0.0
4307,-299,704,-39,-29,-4,2024-01-29 16:49:27,0.0
4333,-290,616,-46,-32,-1,2024-01-29 16:49:27,0.0
4269,-247,674,-34,-18,5,2024-01-29 16:49:27,0.0
4287,-260,693,-47,-21,0,2024-01-29 16:49:27,0.0
4306,-264,630,-38,-16,-4,2024-01-29 16:49:27,0.0
4263,-242,681,-51,-11,5,2024-01-29 16:49:27,0.0
4263,-240,527,-46,-4,11,2024-01-29 16:49:28,0.0
4301,-218,688,-64,-14,8,2024-01-29 16:49:28,0.0
4189,-249,723,-44,-27,23,2024-01-29 16:49:28,0.0
4355,-290,600,-58,-14,10,2024-01-29 16:49:28,0.0
4287,-293,720,-40,-76,12,2024-01-29 16:49:28,0.0
4317,-202,677,-37,-52,18,2024-01-29 16:49:28,0.0
4312,-248,683,-62,-121,9,2024-01-29 16:49:28,0.0
4227,-304,633,-59,-113,1,2024-01-29 16:49:28,0.0
4385,-300,605,-44,-119,2,2024-01-29 16:49:28,0.0
4315,-201,525,-58,-85,12,2024-01-29 16:49:28,0.0
4347,-305,570,-64,-104,-4,2024-01-29 16:49:28,0.0
4266,-228,543,-29,-84,-9,2024-01-29 16:49:28,0.0
4342,-246,551,-52,-71,-1,2024-01-29 16:49:28,0.0
4261,-242,548,-39,-92,-9,2024-01-29 16:49:28,0.0
4335,-267,489,-25,-65,-2,2024-01-29 16:49:28,0.0
4291,-236,461,-35,-55,2,2024-01-29 16:49:28,0.0
4341,-262,497,-37,-26,5,2024-01-29 16:49:28,0.0
4410,-220,509,-33,-70,-1,2024-01-29 16:49:28,0.0
4294,-227,522,-60,-48,8,2024-01-29 16:49:29,0.0
4357,-290,502,-40,-20,-3,2024-01-29 16:49:29,0.0
4282,-207,393,-32,30,1,2024-01-29 16:49:29,0.0
4277,-215,594,-33,-16,4,2024-01-29 16:49:29,0.0
4300,-252,522,-33,7,1,2024-01-29 16:49:29,0.0
4383,-186,534,-55,13,-18,2024-01-29 16:49:29,0.0
4289,-212,582,-77,-6,-9,2024-01-29 16:49:29,0.0
4286,-203,552,-69,15,-25,2024-01-29 16:49:29,0.0
4252,-198,637,-74,-28,-18,2024-01-29 16:49:29,0.0
4258,-219,478,-76,7,-16,2024-01-29 16:49:29,0.0
4348,-171,572,-37,36,2,2024-01-29 16:49:29,0.0
4302,-189,541,-81,0,12,2024-01-29 16:49:29,0.0
4284,-253,562,-41,9,21,2024-01-29 16:49:29,0.0
4345,-233,587,9,29,19,2024-01-29 16:49:29,0.0
4294,-122,616,-19,-13,23,2024-01-29 16:49:29,0.0
4298,-224,636,-1,-6,19,2024-01-29 16:49:29,0.0
4287,-211,625,-33,11,14,2024-01-29 16:49:29,0.0
4295,-171,693,-17,-38,13,2024-01-29 16:49:30,0.0
4286,-211,605,-45,-72,27,2024-01-29 16:49:30,0.0
4327,-214,645,-59,19,20,2024-01-29 16:49:30,0.0
4087,45,739,-326,-139,43,2024-01-29 16:49:30,0.0
3975,341,211,-727,-231,-110,2024-01-29 16:49:30,0.0
4475,1178,324,-1263,-500,-97,2024-01-29 16:49:30,0.0
4707,-78,-27,-1411,-272,-285,2024-01-29 16:49:30,0.0
3864,816,266,-1422,-285,-323,2024-01-29 16:49:30,0.0
4833,539,-268,-1662,-308,-206,2024-01-29 16:49:30,0.0
3847,-1088,-398,-1499,-441,-599,2024-01-29 16:49:30,0.0
3642,-235,-499,-1717,-326,-283,2024-01-29 16:49:30,0.0
5032,-1742,-277,-1385,193,-642,2024-01-29 16:49:30,0.0
5309,-847,-305,-1115,476,-611,2024-01-29 16:49:30,0.0
4879,-447,118,-807,1042,-879,2024-01-29 16:49:30,0.0
4603,-311,491,-699,1283,-942,2024-01-29 16:49:30,0.0
3724,-223,481,-497,1110,-1099,2024-01-29 16:49:30,0.0
2762,-38,726,-349,940,-1170,2024-01-29 16:49:30,0.0
2107,326,855,-297,636,-1258,2024-01-29 16:49:30,0.0
2550,257,765,-245,829,-1378,2024-01-29 16:49:31,0.0
2256,309,619,-15,733,-1193,2024-01-29 16:49:31,0.0
2170,143,805,197,1409,-1109,2024-01-29 16:49:31,0.0
2217,16,419,223,949,-1029,2024-01-29 16:49:31,0.0
1646,-434,79,967,919,-1097,2024-01-29 16:49:31,0.0
1194,-448,282,1216,1211,-1042,2024-01-29 16:49:31,0.0
465,-286,-261,1717,1028,-963,2024-01-29 16:49:31,0.0
179,3835,5002,373,1030,-788,2024-01-29 16:49:31,0.0
3097,-3859,9617,-1499,4,-4758,2024-01-29 16:49:31,0.0
-1437,-7104,6419,286,2472,-746,2024-01-29 16:49:31,0.0
116,-408,317,-231,-425,2454,2024-01-29 16:49:31,0.0
859,5373,-152,741,2179,491,2024-01-29 16:49:31,0.0
-1784,1167,825,-284,-601,-885,2024-01-29 16:49:31,0.0
-1150,2622,2160,-598,-250,1295,2024-01-29 16:49:31,0.0
1443,4834,2507,57,-251,70,2024-01-29 16:49:31,0.0
479,3797,2390,125,-66,317,2024-01-29 16:49:31,0.0
752,4140,2341,219,-227,296,2024-01-29 16:49:31,0.0
683,3308,1219,234,150,30,2024-01-29 16:49:32,0.0
648,3041,1753,-104,-3,41,2024-01-29 16:49:32,0.0
529,3682,1592,6,-154,-151,2024-01-29 16:49:32,0.0
387,3949,1922,-97,29,-170,2024-01-29 16:49:32,0.0
296,3937,1861,-17,-131,-122,2024-01-29 16:49:32,0.0
61,3587,1889,-20,48,-47,2024-01-29 16:49:32,0.0
80,3371,2033,-21,-125,15,2024-01-29 16:49:32,0.0
232,3588,1857,-50,-43,81,2024-01-29 16:49:32,0.0
323,3705,1901,-77,-121,83,2024-01-29 16:49:32,0.0
372,3747,1859,-19,-32,64,2024-01-29 16:49:32,0.0
375,3747,1827,-73,66,43,2024-01-29 16:49:32,0.0
419,3588,1824,-75,13,3,2024-01-29 16:49:32,0.0
391,3624,1853,-59,-42,-39,2024-01-29 16:49:32,0.0
361,3632,1906,-71,-4,-45,2024-01-29 16:49:32,0.0
243,3637,1948,-26,-75,-37,2024-01-29 16:49:32,0.0
228,3585,1847,-50,-35,-12,2024-01-29 16:49:32,0.0
242,3645,1957,-54,-172,15,2024-01-29 16:49:32,
327,3593,1969,-102,-49,51,2024-01-29 16:49:32,0.0
361,3677,1922,-67,-173,15,2024-01-29 16:49:33,0.0
372,3575,1966,-59,-85,-4,2024-01-29 16:49:33,0.0
341,3619,1875,-36,-69,0,2024-01-29 16:49:33,0.0
413,3648,1876,-86,-88,-12,2024-01-29 16:49:33,0.0
317,3664,1875,-56,-128,-3,2024-01-29 16:49:33,0.0
325,3567,1848,-108,-145,-2,2024-01-29 16:49:33,0.0
395,3639,1945,-141,-247,30,2024-01-29 16:49:33,0.0
519,3614,1968,-70,-33,2,2024-01-29 16:49:33,0.0
396,3534,1927,-83,-65,-8,2024-01-29 16:49:33,0.0
459,3608,1825,-77,12,7,2024-01-29 16:49:33,0.0
363,3564,1969,-55,-38,17,2024-01-29 16:49:33,0.0
461,3569,1887,-70,42,5,2024-01-29 16:49:33,0.0
342,3566,1947,-56,11,-4,2024-01-29 16:49:33,0.0
402,3523,1997,-49,-29,19,2024-01-29 16:49:33,0.0
353,3560,2016,-61,35,12,2024-01-29 16:49:33,0.0
401,3547,2004,-16,-15,20,2024-01-29 16:49:33,0.0
401,3588,1948,-25,11,22,2024-01-29 16:49:33,0.0
352,3615,1989,-19,24,22,2024-01-29 16:49:34,0.0
413,3541,1961,-31,-15,31,2024-01-29 16:49:34,0.0
366,3571,2010,-32,15,16,2024-01-29 16:49:34,0.0
375,3503,1879,-39,59,19,2024-01-29 16:49:34,0.0
389,3627,1954,-12,48,22,2024-01-29 16:49:34,0.0
359,3551,1943,-13,3,2,2024-01-29 16:49:34,0.0
415,3590,1940,-38,-15,23,2024-01-29 16:49:34,0.0
332,3553,2008,-31,6,23,2024-01-29 16:49:34,0.0
415,3543,1915,-50,-1,23,2024-01-29 16:49:34,0.0
422,3612,1966,-34,-33,17,2024-01-29 16:49:34,0.0
333,3515,1896,-11,-62,23,2024-01-29 16:49:34,0.0
403,3632,2027,-97,-74,37,2024-01-29 16:49:34,0.0
363,3586,1973,-61,-80,41,2024-01-29 16:49:34,0.0
451,3631,2025,-61,-63,46,2024-01-29 16:49:34,0.0
418,3529,1925,-58,-28,32,2024-01-29 16:49:34,0.0
475,3608,1871,-89,28,40,2024-01-29 16:49:34,0.0
579,3583,2010,-116,-35,24,2024-01-29 16:49:34,0.0
533,3506,2127,-85,33,-8,2024-01-29 16:49:34,0.0
353,3515,2063,-57,7,-33,2024-01-29 16:49:35,0.0
373,3478,2048,-50,-83,-31,2024-01-29 16:49:35,0.0
421,3550,2050,-63,-105,1,2024-01-29 16:49:35,0.0
473,3573,2040,-50,-109,9,2024-01-29 16:49:35,0.0
416,3529,2046,-118,-86,21,2024-01-29 16:49:35,0.0
400,3565,2052,-143,-60,36,2024-01-29 16:49:35,0.0
543,3639,2041,-169,-34,22,2024-01-29 16:49:35,0.0
588,3561,2009,-163,-34,-14,2024-01-29 16:49:35,0.0
586,3530,2080,-166,111,-28,2024-01-29 16:49:35,0.0
518,3373,2151,-118,-33,-65,2024-01-29 16:49:35,0.0
384,3423,2240,-120,2,-46,2024-01-29 16:49:35,0.0
361,3331,2231,-66,-12,-46,2024-01-29 16:49:35,0.0
375,3352,2169,-32,6,-25,2024-01-29 16:49:35,0.0
398,3471,2191,-12,-61,2,2024-01-29 16:49:35,0.0
386,3422,2122,-3,-13,-14,2024-01-29 16:49:35,0.0
420,3450,2139,11,-2,7,2024-01-29 16:49:35,0.0
339,3459,2142,-25,-5,3,2024-01-29 16:49:35,0.0
454,3452,2107,-19,-18,1,2024-01-29 16:49:36,0.0
404,3425,2033,-31,55,-9,2024-01-29 16:49:36,0.0
409,3577,2216,-58,-25,12,2024-01-29 16:49:36,0.0
378,3462,2047,-57,-57,-10,2024-01-29 16:49:36,0.0
296,3534,2178,-85,-58,17,2024-01-29 16:49:36,0.0
489,3404,2251,-59,-76,17,2024-01-29 16:49:36,0.0
347,3404,2212,-57,5,13,2024-01-29 16:49:36,0.0
469,3487,2118,-29,-52,13,2024-01-29 16:49:36,0.0
376,3455,2203,-43,0,11,2024-01-29 16:49:36,0.0
412,3449,2163,7,-42,9,2024-01-29 16:49:36,0.0
453,3449,2126,-43,32,10,2024-01-29 16:49:36,0.0
348,3525,2126,-38,-51,-7,2024-01-29 16:49:36,0.0
428,3428,2054,-63,20,13,2024-01-29 16:49:36,0.0
392,3506,2160,-61,24,4,2024-01-29 16:49:36,0.0
381,3453,2120,-67,-11,0,2024-01-29 16:49:36,0.0
422,3427,2159,-55,-9,8,2024-01-29 16:49:36,0.0
356,3462,2234,-55,11,7,2024-01-29 16:49:36,0.0
385,3408,2169,-53,-3,7,2024-01-29 16:49:36,0.0
433,3459,2198,-40,-17,8,2024-01-29 16:49:37,0.0
416,3428,2225,-28,17,0,2024-01-29 16:49:37,0.0
341,3460,2150,-15,-2,11,2024-01-29 16:49:37,0.0
372,3439,2239,-30,-31,8,2024-01-29 16:49:37,0.0
386,3474,2106,-22,16,13,2024-01-29 16:49:37,0.0
431,3451,2116,-57,1,11,2024-01-29 16:49:37,0.0
454,3464,2105,-57,30,20,2024-01-29 16:49:37,0.0
435,3459,2318,-56,-95,4,2024-01-29 16:49:37,0.0
370,3484,2154,-23,-1,3,2024-01-29 16:49:37,0.0
341,3413,2171,-38,-21,14,2024-01-29 16:49:37,0.0
399,3484,2147,-41,18,13,2024-01-29 16:49:37,0.0
383,3474,2218,-36,-65,19,2024-01-29 16:49:37,0.0
380,3440,2249,-23,-10,0,2024-01-29 16:49:37,0.0
328,3458,2157,-24,-12,2,2024-01-29 16:49:37,0.0
360,3528,2172,-43,-37,13,2024-01-29 16:49:37,0.0
337,3400,2133,-20,-18,6,2024-01-29 16:49:37,0.0
359,3476,2221,-49,-40,22,2024-01-29 16:49:37,0.0
338,3442,2152,-46,-17,25,2024-01-29 16:49:38,0.0
280,3474,2183,-56,23,27,2024-01-29 16:49:38,0.0
437,3460,2188,-19,-81,-9,2024-01-29 16:49:38,0.0
343,3443,2144,-55,-89,-5,2024-01-29 16:49:38,0.0
374,3442,2277,-56,-118,10,2024-01-29 16:49:38,0.0
371,3407,2174,-56,-103,-6,2024-01-29 16:49:38,0.0
392,3446,2230,-42,-128,3,2024-01-29 16:49:38,0.0
458,3467,2136,-28,-91,-12,2024-01-29 16:49:38,0.0
407,3476,2223,-11,-61,4,2024-01-29 16:49:38,0.0
460,3458,2175,-8,-42,10,2024-01-29 16:49:38,0.0
461,3430,2190,2,-66,-3,2024-01-29 16:49:38,0.0
396,3567,2155,-35,-112,13,2024-01-29 16:49:38,
430,3466,2258,-30,-21,16,2024-01-29 16:49:38,0.0
432,3495,2101,-29,-76,-5,2024-01-29 16:49:38,0.0
405,3472,2201,-47,-32,8,2024-01-29 16:49:38,0.0
417,3483,2133,-19,-47,-4,2024-01-29 16:49:38,0.0
459,3484,2130,-29,-3,11,2024-01-29 16:49:38,0.0
394,3488,2139,-14,9,14,2024-01-29 16:49:38,0.0
424,3499,2103,-31,-24,3,2024-01-29 16:49:39,0.0
447,3551,2109,-56,15,32,2024-01-29 16:49:39,0.0
413,3458,2118,-31,24,4,2024-01-29 16:49:39,0.0
403,3486,2164,-38,8,4,2024-01-29 16:49:39,0.0
305,3519,2209,-52,1,37,2024-01-29 16:49:39,0.0
378,3477,2190,-68,-7,27,2024-01-29 16:49:39,0.0
389,3507,2211,-54,-71,22,2024-01-29 16:49:39,0.0
376,3484,2178,-54,33,15,2024-01-29 16:49:39,0.0
374,3472,2141,-50,-3,-1,2024-01-29 16:49:39,0.0
328,3412,2195,-47,-1,8,2024-01-29 16:49:39,0.0
337,3471,2187,-42,-1,15,2024-01-29 16:49:39,0.0
359,3438,2135,-27,-38,18,2024-01-29 16:49:39,0.0
417,3460,2159,-31,5,8,2024-01-29 16:49:39,0.0
343,3505,2101,-18,-14,17,2024-01-29 16:49:39,0.0
346,3463,2214,-45,-61,5,2024-01-29 16:49:39,0.0
418,3516,2194,-32,-22,10,2024-01-29 16:49:39,0.0
363,3456,2102,-37,-10,7,2024-01-29 16:49:39,0.0
475,3498,2043,-58,66,20,2024-01-29 16:49:40,0.0
406,3480,2206,-32,-83,5,2024-01-29 16:49:40,0.0
412,3507,2183,-43,-48,4,2024-01-29 16:49:40,0.0
342,3460,2145,-47,-2,8,2024-01-29 16:49:40,0.0
370,3494,2150,-53,-5,10,2024-01-29 16:49:40,0.0
397,3501,2172,-52,-20,16,2024-01-29 16:49:40,0.0
378,3476,2194,-43,-41,3,2024-01-29 16:49:40,0.0
337,3455,2181,-43,-26,7,2024-01-29 16:49:40,0.0
374,3480,2160,-42,-21,3,2024-01-29 16:49:40,0.0
407,3444,2206,-43,-65,-1,2024-01-29 16:49:40,0.0
341,3494,2192,-29,-46,5,2024-01-29 16:49:40,0.0
393,3452,2130,-40,-30,4,2024-01-29 16:49:40,0.0
396,3479,2109,-31,-10,5,2024-01-29 16:49:40,0.0
399,3466,2140,-28,-24,-1,2024-01-29 16:49:40,0.0
459,3511,2073,-43,14,6,2024-01-29 16:49:40,0.0
408,3463,2138,-37,29,17,2024-01-29 16:49:40,0.0
390,3527,2059,-20,18,-1,2024-01-29 16:49:40,0.0
339,3488,2174,-41,-44,6,2024-01-29 16:49:40,0.0
354,3444,2106,-28,-15,0,2024-01-29 16:49:41,0.0
327,3479,2138,-43,-18,8,2024-01-29 16:49:41,0.0
393,3474,2150,-26,-24,5,2024-01-29 16:49:41,0.0
330,3466,2162,-33,-39,-1,2024-01-29 16:49:41,0.0
356,3488,2105,-40,-34,2,2024-01-29 16:49:41,0.0
322,3469,2134,-22,-18,14,2024-01-29 16:49:41,0.0
285,3476,2172,-31,-36,21,2024-01-29 16:49:41,0.0
374,3541,2166,-52,-48,23,2024-01-29 16:49:41,0.0
350,3545,2136,-25,-46,9,2024-01-29 16:49:41,0.0
294,3471,2176,-47,-22,15,2024-01-29 16:49:41,0.0
374,3546,2104,-6,6,10,2024-01-29 16:49:41,0.0
288,3452,2097,-28,-29,23,2024-01-29 16:49:41,0.0
321,3500,2125,-45,-13,19,2024-01-29 16:49:41,0.0
339,3462,2124,-37,-21,12,2024-01-29 16:49:41,0.0
346,3470,2135,-49,-17,16,2024-01-29 16:49:41,0.0
312,3475,2074,-25,-5,12,2024-01-29 16:49:41,0.0
339,3518,2096,-38,-27,13,2024-01-29 16:49:41,0.0
332,3512,2128,-28,-32,16,2024-01-29 16:49:42,0.0
341,3484,2099,-29,-7,15,2024-01-29 16:49:42,0.0
338,3534,2136,-35,-37,12,2024-01-29 16:49:42,0.0
342,3506,2114,-25,-17,14,2024-01-29 16:49:42,0.0
350,3507,2103,-6,32,11,2024-01-29 16:49:42,0.0
363,3495,2050,-45,18,10,2024-01-29 16:49:42,0.0
432,3479,2079,-45,21,17,2024-01-29 16:49:42,0.0
393,3560,2122,-36,-90,1,2024-01-29 16:49:42,0.0
336,3508,2188,-51,-55,10,2024-01-29 16:49:42,0.0
358,3526,2072,-27,12,9,2024-01-29 16:49:42,0.0
344,3491,2101,-52,-25,14,2024-01-29 16:49:42,0.0
348,3532,2104,-57,-33,11,2024-01-29 16:49:42,0.0
337,3501,2099,-85,-52,12,2024-01-29 16:49:42,0.0
317,3460,2260,-124,-162,27,2024-01-29 16:49:42,0.0
369,3499,2163,-221,-30,63,2024-01-29 16:49:42,0.0
310,3315,2339,-34,16,98,2024-01-29 16:49:42,0.0
216,3550,2271,-44,148,168,2024-01-29 16:49:42,0.0
517,3294,2159,285,201,232,2024-01-29 16:49:42,0.0
83,3231,1884,223,0,215,2024-01-29 16:49:43,0.0
513,3520,1829,181,-155,378,2024-01-29 16:49:43,0.0
342,3555,2349,285,33,409,2024-01-29 16:49:43,0.0
560,3695,1873,114,-14,388,2024-01-29 16:49:43,0.0
740,3719,2008,253,-895,349,2024-01-29 16:49:43,0.0
987,3850,2315,106,-832,438,2024-01-29 16:49:43,0.0
790,4124,1363,97,-960,357,2024-01-29 16:49:43,0.0
1326,3761,1644,-222,-917,417,2024-01-29 16:49:43,0.0
1225,3728,1721,-299,-1142,486,2024-01-29 16:49:43,0.0
1769,3309,1658,-423,-868,430,2024-01-29 16:49:43,0.0
1755,3569,1063,-346,-377,496,2024-01-29 16:49:43,0.0
1939,3550,1827,-280,-450,339,2024-01-29 16:49:43,0.0
2240,2672,1706,-218,-706,432,2024-01-29 16:49:43,0.0
2048,3022,1537,-262,-705,503,2024-01-29 16:49:43,0.0
2454,3280,1507,-292,-961,488,2024-01-29 16:49:43,0.0
2497,3078,1777,-210,-1169,456,2024-01-29 16:49:43,0.0
2958,2627,924,-274,-986,515,2024-01-29 16:49:43,0.0
3053,3119,682,-198,-1036,591,2024-01-29 16:49:44,0.0
2661,3489,1186,-406,-1139,505,2024-01-29 16:49:44,0.0
2923,1936,812,-191,-1096,488,2024-01-29 16:49:44,0.0
3311,2977,741,-52,-761,543,2024-01-29 16:49:44,0.0
4539,2638,809,36,-829,706,2024-01-29 16:49:44,0.0
4528,2808,-143,11,-1611,346,2024-01-29 16:49:44,0.0
5455,2328,-1478,435,-841,-2,2024-01-29 16:49:44,
4991,3064,-1630,299,-311,-150,2024-01-29 16:49:44,0.0
4118,2019,-616,691,-1137,-527,2024-01-29 16:49:44,0.0
3821,2289,-1274,435,-2536,-546,2024-01-29 16:49:44,0.0
3716,2442,-2009,960,-1582,-1070,2024-01-29 16:49:44,0.0
3108,2381,-2393,611,-1333,-1150,2024-01-29 16:49:44,0.0
2031,1373,-1808,791,-1457,-1215,2024-01-29 16:49:44,0.0
1089,1424,-1886,1095,-1524,-866,2024-01-29 16:49:44,0.0
631,1547,-1910,851,-1688,-378,2024-01-29 16:49:44,0.0
178,866,-1276,1094,-2195,12,2024-01-29 16:49:44,0.0
-66,252,-2042,1793,-1699,881,2024-01-29 16:49:44,0.0
677,1176,-3269,1332,-960,1093,2024-01-29 16:49:44,0.0
1310,2297,-3786,242,1173,1294,2024-01-29 16:49:45,0.0
302,1553,-4966,-791,936,1300,2024-01-29 16:49:45,0.0
582,1870,-4081,-72,521,755,2024-01-29 16:49:45,0.0
2058,3655,-4685,183,520,45,2024-01-29 16:49:45,0.0
1893,2211,-3981,293,441,-298,2024-01-29 16:49:45,0.0
2447,2449,-4155,128,-45,-304,2024-01-29 16:49:45,0.0
2529,1664,-3108,344,276,-351,2024-01-29 16:49:45,0.0
3186,1952,-3479,524,644,34,2024-01-29 16:49:45,0.0
3078,1333,-3187,672,715,27,2024-01-29 16:49:45,0.0
3632,1633,-3790,616,912,229,2024-01-29 16:49:45,0.0
3280,2028,-2977,265,892,260,2024-01-29 16:49:45,0.0
3384,2005,-2778,323,1009,328,2024-01-29 16:49:45,0.0
3496,1580,-2376,257,1113,205,2024-01-29 16:49:45,0.0
3831,1480,-2529,638,1222,64,2024-01-29 16:49:45,0.0
3435,279,-1983,853,1233,-6,2024-01-29 16:49:45,0.0
2779,-367,-2608,1328,1199,325,2024-01-29 16:49:45,0.0
3553,-708,-2133,868,1351,148,2024-01-29 16:49:45,0.0
3103,-2071,-1744,876,1224,-121,2024-01-29 16:49:46,0.0
3506,-956,-1665,992,917,-265,2024-01-29 16:49:46,0.0
4019,-1037,-1278,939,929,-106,2024-01-29 16:49:46,0.0
4106,-1472,-1288,946,772,-146,2024-01-29 16:49:46,0.0
4236,-588,-857,591,640,-156,2024-01-29 16:49:46,0.0
3818,-733,-809,420,408,-405,2024-01-29 16:49:46,0.0
4222,-959,-283,10,875,-472,2024-01-29 16:49:46,0.0
3588,-205,-379,94,550,-164,2024-01-29 16:49:46,0.0
3905,-53,-259,-118,540,-212,2024-01-29 16:49:46,0.0
3683,80,-92,-347,428,143,2024-01-29 16:49:46,0.0
4043,-824,116,-370,535,43,2024-01-29 16:49:46,0.0
4438,-469,263,-101,378,122,2024-01-29 16:49:46,0.0
4649,-453,135,-16,230,69,2024-01-29 16:49:46,0.0
4401,-159,559,-54,242,33,2024-01-29 16:49:46,0.0
4385,48,480,-223,374,43,2024-01-29 16:49:46,0.0
4196,-154,501,-324,190,49,2024-01-29 16:49:46,0.0
4228,-86,474,-136,61,-8,2024-01-29 16:49:46,0.0
4325,-403,375,-129,-44,-27,2024-01-29 16:49:47,0.0
3913,1,544,-107,-42,-71,2024-01-29 16:49:47,0.0
4350,-432,500,-65,16,-48,2024-01-29 16:49:47,0.0
4192,-180,353,244,-46,-29,2024-01-29 16:49:47,0.0
4686,160,302,2,-111,-82,2024-01-29 16:49:47,0.0
4210,501,349,-137,-164,-111,2024-01-29 16:49:47,0.0
4249,59,431,-254,12,-87,2024-01-29 16:49:47,0.0
4172,388,738,-235,23,-101,2024-01-29 16:49:47,0.0
4125,163,613,39,-67,49,2024-01-29 16:49:47,0.0
4000,458,593,10,12,88,2024-01-29 16:49:47,0.0
4794,-359,476,-101,33,150,2024-01-29 16:49:47,0.0
4513,-6,643,-50,142,119,2024-01-29 16:49:47,0.0
4324,-764,724,214,205,138,2024-01-29 16:49:47,0.0
4284,-26,843,273,123,22,2024-01-29 16:49:47,0.0
4116,-140,689,216,-145,55,2024-01-29 16:49:47,0.0
4447,-55,533,148,-10,12,2024-01-29 16:49:47,0.0
4051,169,513,-87,-99,7,2024-01-29 16:49:47,0.0
4267,-448,670,-26,-114,-12,2024-01-29 16:49:47,0.0
4136,-166,588,44,-187,-13,2024-01-29 16:49:48,0.0
4391,-321,573,95,-149,-11,2024-01-29 16:49:48,0.0
4348,-70,461,138,-144,6,2024-01-29 16:49:48,0.0
4359,-169,449,144,-189,34,2024-01-29 16:49:48,0.0
4274,-117,491,176,-156,29,2024-01-29 16:49:48,0.0
4372,40,312,87,-143,65,2024-01-29 16:49:48,0.0
4350,-132,406,89,-156,26,2024-01-29 16:49:48,0.0
4347,-119,358,63,-134,55,2024-01-29 16:49:48,0.0
4375,-130,307,52,-113,19,2024-01-29 16:49:48,0.0
4352,-125,264,-1,-102,26,2024-01-29 16:49:48,0.0
4339,-193,371,15,-103,11,2024-01-29 16:49:48,0.0
4360,-19,288,-24,-105,8,2024-01-29 16:49:48,0.0
4324,-101,246,-75,-129,7,2024-01-29 16:49:48,0.0
4364,-164,201,-80,-44,-6,2024-01-29 16:49:48,0.0
4364,-89,234,-53,-79,1,2024-01-29 16:49:48,0.0
4350,-153,302,-68,-91,16,2024-01-29 16:49:48,0.0
4335,-169,167,-29,-131,19,2024-01-29 16:49:48,0.0
4288,-96,127,-31,-116,6,2024-01-29 16:49:49,0.0
4369,-120,117,-61,-67,4,2024-01-29 16:49:49,0.0
4319,-92,158,-55,-68,12,2024-01-29 16:49:49,0.0
4383,-179,157,-46,-35,13,2024-01-29 16:49:49,0.0
4308,-101,152,-30,-26,24,2024-01-29 16:49:49,0.0
4402,-189,87,-21,4,28,2024-01-29 16:49:49,0.0
4340,-96,182,-37,17,15,2024-01-29 16:49:49,0.0
4448,-156,78,-66,25,15,2024-01-29 16:49:49,0.0
4321,-158,212,-75,11,16,2024-01-29 16:49:49,0.0
4368,-190,112,-80,55,1,2024-01-29 16:49:49,0.0
4287,-100,232,-61,62,19,2024-01-29 16:49:49,0.0
4370,-164,206,-48,85,10,2024-01-29 16:49:49,0.0
4377,-104,245,-41,50,11,2024-01-29 16:49:49,0.0
4364,-117,268,-80,86,2,2024-01-29 16:49:49,0.0
4255,-105,297,-70,57,3,2024-01-29 16:49:49,0.0
4349,-108,355,-60,42,1,2024-01-29 16:49:49,0.0
4304,-85,341,-58,23,18,2024-01-29 16:49:49,0.0
4382,-182,355,-61,43,15,2024-01-29 16:49:49,0.0
4420,-133,388,-45,-33,18,2024-01-29 16:49:50,0.0
4276,-169,444,-69,32,3,2024-01-29 16:49:50,
4300,-99,410,-41,37,15,2024-01-29 16:49:50,0.0
4285,-129,383,-55,9,13,2024-01-29 16:49:50,0.0
4417,-121,366,-37,0,17,2024-01-29 16:49:50,0.0
4346,-106,473,-59,20,18,2024-01-29 16:49:50,0.0
4333,-73,467,-89,-22,0,2024-01-29 16:49:50,0.0
4263,-174,464,-98,-51,-1,2024-01-29 16:49:50,0.0
4280,-163,393,-72,-95,-9,2024-01-29 16:49:50,0.0
4358,-139,390,-63,-123,11,2024-01-29 16:49:50,0.0
4383,-148,341,-46,-126,7,2024-01-29 16:49:50,0.0
4413,-179,378,-72,-152,16,2024-01-29 16:49:50,0.0
4242,-109,298,-34,-137,14,2024-01-29 16:49:50,0.0
4316,-180,283,-73,-138,15,2024-01-29 16:49:50,0.0
4269,-177,233,-88,-112,6,2024-01-29 16:49:50,0.0
4306,-163,190,-49,-107,5,2024-01-29 16:49:50,0.0
4329,-131,252,-95,-54,11,2024-01-29 16:49:50,0.0
4353,-116,279,-94,-70,15,2024-01-29 16:49:50,0.0
4343,-219,252,-86,-73,2,2024-01-29 16:49:51,0.0
4198,-191,255,-55,-94,2,2024-01-29 16:49:51,0.0
4442,-122,84,-36,-123,11,2024-01-29 16:49:51,0.0
4283,-156,216,-15,-96,15,2024-01-29 16:49:51,0.0
4333,-108,125,-21,-83,6,2024-01-29 16:49:51,0.0
4338,-127,174,-32,-100,11,2024-01-29 16:49:51,0.0
4390,-207,153,-9,-49,13,2024-01-29 16:49:51,0.0
4343,-150,113,-11,-35,7,2024-01-29 16:49:51,0.0
4311,-135,96,-15,-9,7,2024-01-29 16:49:51,0.0
4371,-151,117,-20,-17,1,2024-01-29 16:49:51,0.0
4378,-118,130,-35,-56,16,2024-01-29 16:49:51,0.0
4316,-188,151,-41,-11,7,2024-01-29 16:49:51,0.0
4321,-124,159,-46,-8,14,2024-01-29 16:49:51,0.0
4344,-182,94,-26,20,8,2024-01-29 16:49:51,0.0
4379,-118,128,-29,-9,10,2024-01-29 16:49:51,0.0
4312,-181,77,-20,-9,19,2024-01-29 16:49:51,0.0
4310,-105,57,-47,-40,23,2024-01-29 16:49:51,0.0
4315,-256,167,15,-49,34,2024-01-29 16:49:52,0.0
4318,-136,147,-11,6,25,2024-01-29 16:49:52,0.0
4438,-128,98,-29,-26,32,2024-01-29 16:49:52,0.0
4262,-197,140,-8,-25,25,2024-01-29 16:49:52,0.0
4350,-171,-17,-12,106,12,2024-01-29 16:49:52,0.0
4413,-107,313,-47,-17,40,2024-01-29 16:49:52,0.0
4244,-152,144,-16,81,-3,2024-01-29 16:49:52,0.0
4474,-242,336,-3,88,42,2024-01-29 16:49:52,0.0
4215,-122,233,27,48,10,2024-01-29 16:49:52,0.0
4409,-248,302,-15,43,29,2024-01-29 16:49:52,0.0
4267,-150,314,59,29,4,2024-01-29 16:49:52,0.0
4379,-146,331,-25,-6,17,2024-01-29 16:49:52,0.0
4331,-144,365,-23,22,-4,2024-01-29 16:49:52,0.0
4219,-212,390,-49,-61,10,2024-01-29 16:49:52,0.0
4324,-98,162,-95,-18,-2,2024-01-29 16:49:52,0.0
4300,-259,346,-86,-47,15,2024-01-29 16:49:52,0.0
4370,-203,267,-39,-68,12,2024-01-29 16:49:52,0.0
4390,-210,294,-28,-18,14,2024-01-29 16:49:53,0.0
4421,-200,311,-29,-3,21,2024-01-29 16:49:53,0.0
4265,-152,355,-49,-66,7,2024-01-29 16:49:53,0.0
4307,-150,262,-71,-103,17,2024-01-29 16:49:53,0.0
4359,-234,223,-52,-68,17,2024-01-29 16:49:53,0.0
4325,-165,276,-51,-131,18,2024-01-29 16:49:53,0.0
4355,-210,187,-54,-77,19,2024-01-29 16:49:53,0.0
4393,-222,273,-58,-112,13,2024-01-29 16:49:53,0.0
4316,-154,248,-21,-109,13,2024-01-29 16:49:53,0.0
4352,-184,217,-72,-123,13,2024-01-29 16:49:53,0.0
4361,-244,95,-58,-66,6,2024-01-29 16:49:53,0.0
4327,-192,194,-62,-112,2,2024-01-29 16:49:53,0.0
4358,-250,106,-53,-85,8,2024-01-29 16:49:53,0.0
4302,-181,163,-48,-68,2,2024-01-29 16:49:53,0.0
4305,-188,137,-52,-132,12,2024-01-29 16:49:53,0.0
4265,-210,96,-36,-153,-13,2024-01-29 16:49:53,0.0
4400,-216,9,-23,-67,-14,2024-01-29 16:49:53,0.0
4329,-130,89,-74,-55,-1,2024-01-29 16:49:53,0.0
4352,-195,-1,-58,-84,2,2024-01-29 16:49:54,0.0
4326,-174,16,-52,-76,1,2024-01-29 16:49:54,0.0
4384,-199,6,-36,-28,6,2024-01-29 16:49:54,0.0
4322,-148,0,-50,-12,11,2024-01-29 16:49:54,0.0
4342,-219,-5,-33,0,14,2024-01-29 16:49:54,0.0
4350,-201,-50,-8,-6,10,2024-01-29 16:49:54,0.0
4314,-193,28,-4,12,13,2024-01-29 16:49:54,0.0
4372,-161,-18,-22,20,16,2024-01-29 16:49:54,0.0
4383,-180,83,-29,-27,9,2024-01-29 16:49:54,0.0
4296,-193,50,-13,19,15,2024-01-29 16:49:54,0.0
4322,-142,48,-46,-1,9,2024-01-29 16:49:54,0.0
4343,-223,83,-49,27,3,2024-01-29 16:49:54,0.0
4314,-171,63,-26,9,9,2024-01-29 16:49:54,0.0
4329,-188,96,-21,35,3,2024-01-29 16:49:54,0.0
4363,-209,50,-46,56,12,2024-01-29 16:49:54,0.0
4378,-154,187,-11,-9,3,2024-01-29 16:49:54,0.0
4319,-203,154,-36,30,1,2024-01-29 16:49:54,0.0
4388,-186,61,-56,91,14,2024-01-29 16:49:55,0.0
4376,-204,252,-11,9,10,2024-01-29 16:49:55,0.0
4339,-184,200,-30,34,13,2024-01-29 16:49:55,0.0
4324,-150,242,-32,9,15,2024-01-29 16:49:55,0.0
4325,-216,225,-53,15,14,2024-01-29 16:49:55,0.0
4359,-188,221,-27,1,17,2024-01-29 16:49:55,0.0
4351,-212,171,-37,10,14,2024-01-29 16:49:55,0.0
4297,-201,255,-24,0,12,2024-01-29 16:49:55,0.0
4347,-209,239,-37,-10,8,2024-01-29 16:49:55,0.0
4303,-221,331,-31,-42,4,2024-01-29 16:49:55,0.0
4391,-211,173,-60,42,-5,2024-01-29 16:49:55,0.0
4365,-138,304,-55,-42,11,2024-01-29 16:49:55,0.0
4328,-161,215,-86,-64,16,2024-01-29 16:49:55,0.0
4411,-134,154,-167,-69,10,2024-01-29 16:49:55,0.0
4329,-37,206,-247,-141,24,2024-01-29 16:49:55,
3997,357,-142,-627,-243,-14,2024-01-29 16:49:55,0.0
4553,301,-49,-882,-273,-26,2024-01-29 16:49:55,0.0
4338,324,-199,-896,-378,-122,2024-01-29 16:49:55,0.0
4186,723,-188,-1255,-332,-103,2024-01-29 16:49:56,0.0
3673,-369,-837,-1086,-585,-172,2024-01-29 16:49:56,0.0
3685,-356,-701,-1445,-195,-255,2024-01-29 16:49:56,0.0
4857,-380,-196,-2125,192,-385,2024-01-29 16:49:56,0.0
5455,-1461,-631,-1575,255,-542,2024-01-29 16:49:56,0.0
5223,-450,-161,-1171,672,-658,2024-01-29 16:49:56,0.0
4496,-172,26,-1052,694,-817,2024-01-29 16:49:56,0.0
3846,-639,203,-718,772,-986,2024-01-29 16:49:56,0.0
3702,-366,236,-141,979,-1137,2024-01-29 16:49:56,0.0
3018,202,434,234,838,-1242,2024-01-29 16:49:56,0.0
2690,401,392,264,722,-1331,2024-01-29 16:49:56,0.0
2616,1039,553,275,847,-1373,2024-01-29 16:49:56,0.0
3665,494,920,422,964,-1340,2024-01-29 16:49:56,0.0
2452,903,312,62,264,-1364,2024-01-29 16:49:56,0.0
1706,-218,294,402,416,-1366,2024-01-29 16:49:56,0.0
1534,179,147,190,983,-1223,2024-01-29 16:49:56,0.0
1715,-634,-30,776,877,-1143,2024-01-29 16:49:56,0.0
401,-932,70,1134,556,-1302,2024-01-29 16:49:57,0.0
-772,-303,1,1691,355,-976,2024-01-29 16:49:57,0.0
10649,32767,19152,4364,221,-4180,2024-01-29 16:49:57,0.0
-3410,16469,-19245,-1914,-25,-666,2024-01-29 16:49:57,0.0
-960,-2103,5497,1409,1806,1229,2024-01-29 16:49:57,0.0
1503,5091,467,804,446,143,2024-01-29 16:49:57,0.0
-3079,1521,-145,-662,296,-1096,2024-01-29 16:49:57,0.0
-884,835,491,-141,-199,618,2024-01-29 16:49:57,0.0
422,6193,257,-266,12,928,2024-01-29 16:49:57,0.0
18,4260,1283,-154,-625,433,2024-01-29 16:49:57,0.0
1238,4915,1034,213,150,795,2024-01-29 16:49:57,0.0
1076,3812,577,336,-31,1,2024-01-29 16:49:57,0.0
1108,3384,574,121,131,72,2024-01-29 16:49:57,0.0
951,3604,545,236,-153,-194,2024-01-29 16:49:57,0.0
720,4308,340,116,-247,-244,2024-01-29 16:49:57,0.0
662,4399,237,-58,-146,-234,2024-01-29 16:49:57,0.0
592,4047,626,-152,-8,-186,2024-01-29 16:49:57,0.0
254,3936,578,-81,-19,-39,2024-01-29 16:49:57,0.0
413,3756,597,-24,-11,135,2024-01-29 16:49:58,0.0
616,4052,447,-8,6,156,2024-01-29 16:49:58,0.0
651,4149,387,-79,11,163,2024-01-29 16:49:58,0.0
730,3989,505,-149,-14,81,2024-01-29 16:49:58,0.0
781,3900,598,-141,-13,-23,2024-01-29 16:49:58,0.0
618,3953,569,-69,-35,-55,2024-01-29 16:49:58,0.0
642,4013,561,-105,-23,-71,2024-01-29 16:49:58,0.0
609,3994,635,-54,-37,-22,2024-01-29 16:49:58,0.0
585,4038,575,-134,21,40,2024-01-29 16:49:58,0.0
613,3947,806,-71,-37,27,2024-01-29 16:49:58,0.0
635,4017,597,-66,-16,39,2024-01-29 16:49:58,0.0
624,3983,667,-56,-10,15,2024-01-29 16:49:58,0.0
660,3996,610,-66,-14,-2,2024-01-29 16:49:58,0.0
600,3958,690,-82,-37,-3,2024-01-29 16:49:58,0.0
622,3989,695,-58,-29,-16,2024-01-29 16:49:58,0.0
600,3989,645,-74,-21,1,2024-01-29 16:49:58,0.0
595,3990,685,-57,-29,21,2024-01-29 16:49:58,0.0
645,3995,727,-43,-43,10,2024-01-29 16:49:59,0.0
609,3951,720,-8,-29,6,2024-01-29 16:49:59,0.0
609,4009,685,-44,-32,17,2024-01-29 16:49:59,0.0
648,3958,801,-27,-96,1,2024-01-29 16:49:59,0.0
616,3999,651,-23,-42,-1,2024-01-29 16:49:59,0.0
624,3982,632,-43,-53,8,2024-01-29 16:49:59,0.0
594,3991,635,-48,-60,10,2024-01-29 16:49:59,0.0
615,3982,713,-39,-85,15,2024-01-29 16:49:59,0.0
609,3978,673,-18,-74,8,2024-01-29 16:49:59,0.0
641,3951,644,-8,-60,3,2024-01-29 16:49:59,0.0
626,3998,685,16,-62,8,2024-01-29 16:49:59,0.0
623,3932,652,36,-52,3,2024-01-29 16:49:59,0.0
614,4008,615,45,-56,1,2024-01-29 16:49:59,0.0
591,3991,417,21,-26,-13,2024-01-29 16:49:59,0.0
602,4015,561,0,-56,3,2024-01-29 16:49:59,0.0
595,3992,440,-14,-36,-13,2024-01-29 16:49:59,0.0
596,4030,515,-80,-14,31,2024-01-29 16:49:59,0.0
620,3972,579,-64,-31,17,2024-01-29 16:49:59,0.0
620,3983,624,-102,-15,1,2024-01-29 16:50:00,0.0
638,4025,576,-64,-20,-9,2024-01-29 16:50:00,0.0
584,3981,644,-82,-15,-17,2024-01-29 16:50:00,0.0
593,3969,575,-60,-17,9,2024-01-29 16:50:00,0.0
580,3984,629,-56,-15,-1,2024-01-29 16:50:00,0.0
554,4027,609,-78,-29,24,2024-01-29 16:50:00,0.0
568,3989,551,-77,-7,32,2024-01-29 16:50:00,0.0
574,3991,552,-117,-8,34,2024-01-29 16:50:00,0.0
648,3946,703,-43,-24,-12,2024-01-29 16:50:00,0.0
587,4021,585,-25,-37,1,2024-01-29 16:50:00,0.0
598,3961,652,-81,-13,10,2024-01-29 16:50:00,0.0
565,3973,627,-87,-6,19,2024-01-29 16:50:00,0.0
628,4002,649,-53,-19,14,2024-01-29 16:50:00,0.0
632,3982,684,-70,-25,8,2024-01-29 16:50:00,0.0
561,3974,659,-87,-30,14,2024-01-29 16:50:00,0.0
617,3985,738,-70,-29,22,2024-01-29 16:50:00,0.0
639,3950,684,-28,-45,19,2024-01-29 16:50:00,0.0
578,3978,685,-71,-23,32,2024-01-29 16:50:01,0.0
600,3960,589,-96,11,9,2024-01-29 16:50:01,0.0
589,3982,755,-45,-27,-3,2024-01-29 16:50:01,0.0
597,3952,706,-45,-41,9,2024-01-29 16:50:01,0.0
592,4006,730,-80,-19,15,2024-01-29 16:50:01,0.0
605,3920,721,-69,-34,27,2024-01-29 16:50:01,0.0
641,3980,709,-63,-29,19,2024-01-29 16:50:01,0.0
674,3978,771,-26,-54,7,2024-01-29 16:50:01,0.0
606,3934,731,2,-48,-7,2024-01-29 16:50:01,0.0
586,3970,704,-2,-58,0,2024-01-29 16:50:01,
666,3974,772,23,-69,0,2024-01-29 16:50:01,0.0
625,4036,588,20,-51,11,2024-01-29 16:50:01,0.0
626,4012,634,-42,-55,22,2024-01-29 16:50:01,0.0
699,3932,709,28,-137,4,2024-01-29 16:50:01,0.0
581,4009,648,-10,-76,19,2024-01-29 16:50:01,0.0
682,3965,690,-17,-70,24,2024-01-29 16:50:01,0.0
622,3936,688,6,-56,5,2024-01-29 16:50:01,0.0
685,4018,621,1,-80,0,2024-01-29 16:50:01,0.0
603,3959,657,-1,-60,-23,2024-01-29 16:50:02,0.0
635,3997,618,-42,-77,8,2024-01-29 16:50:02,0.0
640,3994,657,-17,-40,0,2024-01-29 16:50:02,0.0
651,3965,612,-12,-23,-1,2024-01-29 16:50:02,0.0
682,4017,530,-21,-3,14,2024-01-29 16:50:02,0.0
659,4044,688,-63,30,20,2024-01-29 16:50:02,0.0
648,4024,598,-40,-18,-17,2024-01-29 16:50:02,0.0
607,4027,633,-72,10,-4,2024-01-29 16:50:02,0.0
633,3992,615,-72,10,18,2024-01-29 16:50:02,0.0
635,3983,594,-64,1,26,2024-01-29 16:50:02,0.0
647,3977,714,-78,1,14,2024-01-29 16:50:02,0.0
651,3998,610,-80,12,18,2024-01-29 16:50:02,0.0
650,3995,667,-73,13,21,2024-01-29 16:50:02,0.0
605,3942,679,-102,2,0,2024-01-29 16:50:02,0.0
652,3997,708,-87,-16,29,2024-01-29 16:50:02,0.0
610,3966,722,-83,-29,6,2024-01-29 16:50:02,0.0
669,3979,746,-93,-17,23,2024-01-29 16:50:02,0.0
635,3985,807,-111,-40,12,2024-01-29 16:50:03,0.0
649,3962,755,-43,17,4,2024-01-29 16:50:03,0.0
606,3965,701,-76,-1,32,2024-01-29 16:50:03,0.0
654,3954,807,-56,-44,24,2024-01-29 16:50:03,0.0
653,3953,738,-77,-33,22,2024-01-29 16:50:03,0.0
676,3973,786,-65,-33,13,2024-01-29 16:50:03,0.0
659,3950,786,-60,-13,7,2024-01-29 16:50:03,0.0
