acceleration_x,acceleration_y,acceleration_z,gyroscope_x,gyroscope_y,gyroscope_z,timestamp,label
-2128,-1642,-4581,-148,221,68,2024-01-24 15:31:23,0.0
-1903,-1613,-4468,-214,471,30,2024-01-24 15:31:23,0.0
-1786,-1422,-4563,-295,943,-15,2024-01-24 15:31:23,0.0
-1096,-1242,-4351,-328,949,-42,2024-01-24 15:31:23,0.0
-699,-1067,-4326,-290,1162,-79,2024-01-24 15:31:23,0.0
-146,-784,-4028,-188,1590,-62,2024-01-24 15:31:23,0.0
166,-434,-3420,-368,2095,23,2024-01-24 15:31:23,0.0
705,-838,-3691,-688,2279,114,2024-01-24 15:31:23,0.0
1312,-739,-4318,-866,2586,51,2024-01-24 15:31:23,0.0
1717,-455,-3741,-752,2737,-124,2024-01-24 15:31:23,0.0
2167,-191,-3370,-806,2518,-235,2024-01-24 15:31:23,0.0
2163,-161,-2747,-779,2352,-327,2024-01-24 15:31:23,0.0
2536,2,-2296,-600,2224,-239,2024-01-24 15:31:24,0.0
2925,358,-2122,-427,2353,-278,2024-01-24 15:31:24,0.0
3304,322,-1771,-405,1987,-160,2024-01-24 15:31:24,0.0
3525,466,-1443,-303,1773,-96,2024-01-24 15:31:24,0.0
3912,422,-1032,-198,1423,-37,2024-01-24 15:31:24,0.0
4271,389,-692,-151,1171,-29,2024-01-24 15:31:24,0.0
4020,537,-298,-87,562,3,2024-01-24 15:31:24,0.0
4043,449,-588,8,-514,13,2024-01-24 15:31:24,0.0
4366,415,-1225,-68,109,53,2024-01-24 15:31:24,0.0
4236,549,-401,-182,156,-7,2024-01-24 15:31:24,0.0
4225,288,-483,-265,46,32,2024-01-24 15:31:24,0.0
4270,343,-373,-158,39,22,2024-01-24 15:31:24,0.0
4325,412,-396,-120,-132,11,2024-01-24 15:31:24,0.0
4308,347,-406,-53,-141,24,2024-01-24 15:31:24,0.0
4318,384,-414,-19,-127,13,2024-01-24 15:31:24,0.0
4281,434,-409,-20,-123,17,2024-01-24 15:31:24,0.0
4304,414,-488,-23,-188,16,2024-01-24 15:31:24,0.0
4305,378,-514,-5,-129,21,2024-01-24 15:31:25,0.0
4265,371,-583,39,-53,26,2024-01-24 15:31:25,0.0
4296,359,-692,73,-129,40,2024-01-24 15:31:25,0.0
4100,404,-830,113,-299,86,2024-01-24 15:31:25,0.0
4037,406,-850,76,-590,141,2024-01-24 15:31:25,0.0
3915,200,-1183,187,-1063,255,2024-01-24 15:31:25,0.0
3554,44,-1953,323,-1451,351,2024-01-24 15:31:25,0.0
3466,-78,-1521,435,-2093,503,2024-01-24 15:31:25,0.0
3107,-115,-1321,545,-2098,475,2024-01-24 15:31:25,0.0
2931,-129,-2279,712,-2421,494,2024-01-24 15:31:25,0.0
2748,-451,-3160,730,-2504,354,2024-01-24 15:31:25,0.0
2283,-258,-3070,441,-2352,310,2024-01-24 15:31:25,0.0
1855,-468,-2925,463,-2734,311,2024-01-24 15:31:25,0.0
1893,-680,-3926,505,-2477,113,2024-01-24 15:31:25,0.0
1405,-950,-4094,188,-2547,-69,2024-01-24 15:31:25,0.0
546,-1226,-3999,281,-2384,-231,2024-01-24 15:31:25,0.0
307,-857,-4010,312,-1904,-216,2024-01-24 15:31:25,0.0
-388,-978,-3703,289,-1363,-131,2024-01-24 15:31:25,0.0
-931,-1352,-4279,286,-1251,98,2024-01-24 15:31:26,0.0
-804,-1661,-4036,340,-1117,49,2024-01-24 15:31:26,0.0
-1231,-1594,-4535,364,-773,-47,2024-01-24 15:31:26,0.0
-2204,-2060,-4370,348,-785,26,2024-01-24 15:31:26,0.0
-1581,-2040,-4417,120,-670,38,2024-01-24 15:31:26,0.0
-2371,-2055,-4279,68,-487,10,2024-01-24 15:31:26,0.0
-2625,-1963,-4301,40,-442,101,2024-01-24 15:31:26,0.0
-2526,-2116,-4512,-104,-61,75,2024-01-24 15:31:26,0.0
-2486,-2111,-4346,-214,227,97,2024-01-24 15:31:26,0.0
-2227,-1884,-4273,-318,605,54,2024-01-24 15:31:26,0.0
-1835,-1772,-4214,-337,1007,7,2024-01-24 15:31:26,0.0
-1341,-1643,-4227,-339,1240,35,2024-01-24 15:31:26,0.0
-654,-1292,-3944,-249,1598,76,2024-01-24 15:31:26,0.0
-35,-1095,-3679,-340,2201,-40,2024-01-24 15:31:26,0.0
531,-931,-3485,-501,2770,-115,2024-01-24 15:31:26,0.0
1235,-1122,-3855,-829,3318,-317,2024-01-24 15:31:26,0.0
1551,-673,-3642,-807,3950,-568,2024-01-24 15:31:26,0.0
2021,-548,-3153,-946,3190,-536,2024-01-24 15:31:27,0.0
2080,-532,-2801,-1031,2735,-559,2024-01-24 15:31:27,0.0
2512,-175,-1854,-716,2591,-505,2024-01-24 15:31:27,0.0
2685,515,-1767,-450,2216,-358,2024-01-24 15:31:27,0.0
3783,207,-1879,-451,1697,-93,2024-01-24 15:31:27,0.0
3619,-13,-943,-456,1166,-135,2024-01-24 15:31:27,0.0
3921,355,-1128,-456,846,-36,2024-01-24 15:31:27,0.0
4312,245,-704,-603,554,-73,2024-01-24 15:31:27,0.0
4248,86,-513,-221,336,-19,2024-01-24 15:31:27,0.0
4109,758,-494,-355,-95,-15,2024-01-24 15:31:27,0.0
4449,81,-697,-438,-50,70,2024-01-24 15:31:27,0.0
4227,75,-424,-109,-40,11,2024-01-24 15:31:27,0.0
4325,274,-391,-24,-274,13,2024-01-24 15:31:27,0.0
4238,359,-402,17,-219,12,2024-01-24 15:31:27,0.0
4231,245,-409,100,-259,38,2024-01-24 15:31:27,0.0
4235,257,-619,150,-280,71,2024-01-24 15:31:27,0.0
4277,280,-755,214,-431,96,2024-01-24 15:31:27,0.0
3845,205,-1002,185,-875,107,2024-01-24 15:31:27,0.0
3851,189,-1358,312,-1303,225,2024-01-24 15:31:28,0.0
3557,66,-1611,441,-2050,379,2024-01-24 15:31:28,0.0
3083,-196,-1699,541,-2124,368,2024-01-24 15:31:28,0.0
2840,-128,-2298,587,-2079,381,2024-01-24 15:31:28,0.0
2624,-238,-2724,576,-2341,376,2024-01-24 15:31:28,0.0
2603,-413,-3083,634,-2644,394,2024-01-24 15:31:28,0.0
1697,-568,-3074,503,-2474,218,2024-01-24 15:31:28,0.0
1777,-663,-3603,566,-2643,343,2024-01-24 15:31:28,0.0
1261,-804,-3808,384,-3002,47,2024-01-24 15:31:28,0.0
816,-939,-3371,371,-2441,-167,2024-01-24 15:31:28,0.0
-65,-904,-4164,274,-2702,-191,2024-01-24 15:31:28,0.0
-161,-1036,-4464,271,-1719,-242,2024-01-24 15:31:28,0.0
-1157,-1632,-3909,311,-1704,-187,2024-01-24 15:31:28,0.0
-1547,-1444,-3948,78,-1346,-76,2024-01-24 15:31:28,0.0
-2078,-1667,-4265,258,-961,-54,2024-01-24 15:31:28,0.0
-2591,-1910,-3912,58,-555,-7,2024-01-24 15:31:28,0.0
-1458,-1771,-4015,-6,-279,-24,2024-01-24 15:31:28,0.0
-2812,-2103,-3812,55,-164,-135,2024-01-24 15:31:29,
-2679,-1917,-4158,-39,46,-80,2024-01-24 15:31:29,0.0
-2640,-2081,-4393,-158,212,-13,2024-01-24 15:31:29,0.0
-2475,-1905,-4238,-207,359,70,2024-01-24 15:31:29,0.0
-2155,-1818,-4181,-205,592,46,2024-01-24 15:31:29,0.0
-1862,-1617,-4219,-223,894,36,2024-01-24 15:31:29,0.0
-1443,-1577,-4132,-229,1102,78,2024-01-24 15:31:29,0.0
-973,-1175,-3960,-201,1106,125,2024-01-24 15:31:29,0.0
-458,-1161,-3910,-254,1626,224,2024-01-24 15:31:29,0.0
7,-1097,-3907,-331,2108,196,2024-01-24 15:31:29,0.0
492,-977,-4032,-459,2510,79,2024-01-24 15:31:29,0.0
1143,-999,-3799,-812,3002,-224,2024-01-24 15:31:29,0.0
1502,-857,-3505,-828,3066,-332,2024-01-24 15:31:29,0.0
1857,-582,-3085,-681,2842,-366,2024-01-24 15:31:29,0.0
2329,-212,-3010,-782,2420,-318,2024-01-24 15:31:29,0.0
2768,-172,-2412,-785,2189,-329,2024-01-24 15:31:29,0.0
2807,-5,-2060,-697,2043,-347,2024-01-24 15:31:29,0.0
3297,168,-1974,-659,1575,-202,2024-01-24 15:31:29,0.0
3665,113,-1675,-614,1526,-176,2024-01-24 15:31:30,0.0
3743,286,-1369,-488,1173,-64,2024-01-24 15:31:30,0.0
4104,390,-1121,-456,954,-63,2024-01-24 15:31:30,0.0
4237,373,-795,-521,880,-23,2024-01-24 15:31:30,0.0
4150,324,-440,-364,854,-21,2024-01-24 15:31:30,0.0
4082,296,-148,-159,98,-52,2024-01-24 15:31:30,0.0
4496,397,-665,-34,-392,-36,2024-01-24 15:31:30,0.0
4232,520,-724,-104,142,-41,2024-01-24 15:31:30,0.0
4303,468,-374,-3,77,-94,2024-01-24 15:31:30,0.0
4206,266,-378,-129,-65,-49,2024-01-24 15:31:30,0.0
4302,466,-466,-70,-22,-1,2024-01-24 15:31:30,0.0
4316,468,-437,79,-149,17,2024-01-24 15:31:30,0.0
4264,449,-372,104,-165,3,2024-01-24 15:31:32,0.0
4299,422,-478,58,-144,36,2024-01-24 15:31:32,0.0
4260,432,-436,113,-191,48,2024-01-24 15:31:32,0.0
4207,403,-567,124,-230,42,2024-01-24 15:31:32,0.0
4198,317,-684,142,-321,37,2024-01-24 15:31:32,0.0
4190,273,-910,210,-379,80,2024-01-24 15:31:32,0.0
4042,365,-1035,263,-458,167,2024-01-24 15:31:32,0.0
4067,129,-1286,443,-875,208,2024-01-24 15:31:32,0.0
3624,156,-1668,505,-973,299,2024-01-24 15:31:32,0.0
-1411,-1776,-4365,116,-295,58,2024-01-24 15:31:32,0.0
-1722,-2182,-4603,-89,-186,195,2024-01-24 15:31:32,0.0
-1742,-2112,-4697,-233,103,205,2024-01-24 15:31:32,0.0
-1691,-2005,-4658,-307,514,124,2024-01-24 15:31:32,0.0
-1237,-1821,-4429,-425,1470,-169,2024-01-24 15:31:32,0.0
-1015,-1578,-4764,-453,1236,159,2024-01-24 15:31:32,0.0
-318,-1440,-3716,-349,1201,198,2024-01-24 15:31:32,0.0
80,-1140,-3805,-224,1373,198,2024-01-24 15:31:32,0.0
610,-1011,-3954,-400,1970,117,2024-01-24 15:31:32,0.0
780,-1077,-3666,-671,2100,40,2024-01-24 15:31:32,0.0
1534,-944,-3384,-675,2361,-41,2024-01-24 15:31:32,0.0
1704,-806,-3360,-628,2618,-264,2024-01-24 15:31:32,0.0
2098,-539,-3229,-752,2598,-352,2024-01-24 15:31:32,0.0
2259,-258,-2795,-687,2154,-287,2024-01-24 15:31:32,0.0
2639,-38,-2269,-722,2180,-334,2024-01-24 15:31:32,0.0
2944,149,-1962,-805,2094,-263,2024-01-24 15:31:33,0.0
3283,-129,-1893,-527,1357,-77,2024-01-24 15:31:33,0.0
3552,-194,-1152,-63,934,-100,2024-01-24 15:31:33,0.0
4117,47,-2049,151,317,-161,2024-01-24 15:31:33,0.0
3985,105,-1969,-91,472,-170,2024-01-24 15:31:33,0.0
4184,344,-1252,71,431,-149,2024-01-24 15:31:33,0.0
3877,637,-1070,-281,427,-75,2024-01-24 15:31:33,0.0
4069,102,-1330,-337,234,83,2024-01-24 15:31:33,0.0
4162,106,-1214,-210,123,-60,2024-01-24 15:31:33,0.0
4253,153,-1164,-86,118,-25,2024-01-24 15:31:33,0.0
4163,251,-989,30,130,-72,2024-01-24 15:31:33,0.0
4182,365,-930,14,35,-34,2024-01-24 15:31:33,0.0
4146,275,-1029,-4,-11,-2,2024-01-24 15:31:33,0.0
4183,330,-923,16,-63,9,2024-01-24 15:31:33,0.0
4166,328,-1057,48,-142,21,2024-01-24 15:31:33,0.0
4102,219,-1125,19,-188,40,2024-01-24 15:31:33,0.0
4110,212,-1353,61,-247,52,2024-01-24 15:31:33,0.0
3972,233,-1469,152,-517,107,2024-01-24 15:31:34,0.0
3639,232,-1459,226,-740,217,2024-01-24 15:31:34,0.0
3516,35,-1595,305,-1661,460,2024-01-24 15:31:34,0.0
3351,-385,-1771,551,-1480,383,2024-01-24 15:31:34,0.0
3196,-133,-2505,216,-1709,361,2024-01-24 15:31:34,0.0
2405,25,-2140,289,-2139,340,2024-01-24 15:31:34,0.0
2785,-552,-2491,554,-2127,408,2024-01-24 15:31:34,0.0
1804,-237,-2469,661,-2459,258,2024-01-24 15:31:34,0.0
2045,-696,-3398,691,-2678,273,2024-01-24 15:31:34,0.0
2362,-907,-4267,458,-3073,48,2024-01-24 15:31:34,0.0
804,-940,-3788,348,-2318,-337,2024-01-24 15:31:34,0.0
635,-872,-4270,439,-2368,-239,2024-01-24 15:31:34,0.0
190,-1228,-3969,334,-2070,-350,2024-01-24 15:31:34,0.0
-746,-1670,-4413,381,-1645,-447,2024-01-24 15:31:34,0.0
-1104,-1170,-4189,251,-1060,-253,2024-01-24 15:31:34,0.0
-1829,-1751,-4362,157,-722,-100,2024-01-24 15:31:34,0.0
-916,-1750,-3734,47,-836,81,2024-01-24 15:31:34,0.0
-2113,-1963,-4462,80,-859,82,2024-01-24 15:31:34,0.0
-2633,-2184,-4714,107,-623,123,2024-01-24 15:31:35,0.0
-2403,-2164,-4592,-49,-76,65,2024-01-24 15:31:35,0.0
-2471,-2057,-4582,-152,183,28,2024-01-24 15:31:35,0.0
-2150,-2009,-4450,-221,586,5,2024-01-24 15:31:35,0.0
-1865,-1785,-4281,-282,1032,5,2024-01-24 15:31:35,0.0
-1478,-1675,-4064,-306,1263,123,2024-01-24 15:31:35,0.0
-801,-1358,-4229,-265,1250,192,2024-01-24 15:31:35,0.0
-193,-1305,-4064,-257,1771,126,2024-01-24 15:31:35,0.0
215,-868,-3480,-319,2437,65,2024-01-24 15:31:35,0.0
656,-787,-3568,-494,2444,82,2024-01-24 15:31:35,0.0
1248,-1083,-4024,-912,2807,-67,2024-01-24 15:31:35,0.0
1892,-832,-3659,-962,3117,-213,2024-01-24 15:31:35,
1948,-558,-3192,-785,2754,-342,2024-01-24 15:31:35,0.0
2420,-122,-2452,-753,1943,-225,2024-01-24 15:31:35,0.0
2777,-185,-2328,-826,2138,-349,2024-01-24 15:31:35,0.0
2949,-245,-1816,-661,1789,-366,2024-01-24 15:31:35,0.0
3140,-275,-2086,-441,1502,-363,2024-01-24 15:31:35,0.0
3390,605,-1576,-355,1398,-195,2024-01-24 15:31:36,0.0
4014,575,-1540,-313,1206,1,2024-01-24 15:31:36,0.0
4022,616,-1231,-556,1107,-12,2024-01-24 15:31:36,0.0
4093,221,-903,-546,590,-20,2024-01-24 15:31:36,0.0
4285,95,-831,-255,405,-4,2024-01-24 15:31:36,0.0
4189,494,-725,-142,437,0,2024-01-24 15:31:36,0.0
4106,502,-347,-304,301,-25,2024-01-24 15:31:36,0.0
4331,291,-448,-238,88,8,2024-01-24 15:31:36,0.0
4379,230,-399,-52,-2,13,2024-01-24 15:31:36,0.0
4226,405,-196,16,-29,20,2024-01-24 15:31:36,0.0
4328,442,-262,60,-102,16,2024-01-24 15:31:36,0.0
4281,369,-351,99,-92,-4,2024-01-24 15:31:36,0.0
4313,434,-428,100,-124,22,2024-01-24 15:31:36,0.0
4271,393,-344,84,-94,8,2024-01-24 15:31:36,0.0
4242,314,-430,108,-178,24,2024-01-24 15:31:36,0.0
4333,355,-514,144,-226,36,2024-01-24 15:31:36,0.0
4250,385,-633,123,-243,52,2024-01-24 15:31:36,0.0
4161,252,-831,176,-555,92,2024-01-24 15:31:36,0.0
4118,213,-1110,262,-782,133,2024-01-24 15:31:37,0.0
3867,165,-1300,390,-1185,176,2024-01-24 15:31:37,0.0
3316,17,-1761,465,-1669,327,2024-01-24 15:31:37,0.0
2759,-240,-1963,686,-2346,479,2024-01-24 15:31:37,0.0
2757,-285,-1580,768,-2568,573,2024-01-24 15:31:37,0.0
2738,-162,-2460,734,-2212,397,2024-01-24 15:31:37,0.0
1965,-208,-3122,555,-3177,529,2024-01-24 15:31:37,0.0
2154,-822,-4309,554,-3481,580,2024-01-24 15:31:37,0.0
1976,-663,-2989,270,-3253,170,2024-01-24 15:31:37,0.0
407,-1009,-4259,485,-3340,-97,2024-01-24 15:31:37,0.0
440,-1480,-3993,367,-3062,-219,2024-01-24 15:31:37,0.0
-296,-950,-4026,584,-1493,-392,2024-01-24 15:31:37,0.0
-931,-1476,-3763,426,-1336,-196,2024-01-24 15:31:37,0.0
-1531,-1831,-4243,193,-1103,-218,2024-01-24 15:31:37,0.0
-1866,-2051,-3928,210,-726,-322,2024-01-24 15:31:37,0.0
-2167,-1612,-4386,60,-388,-178,2024-01-24 15:31:37,0.0
-1736,-2175,-4120,38,-23,-36,2024-01-24 15:31:37,0.0
-1913,-1952,-3727,-47,114,-21,2024-01-24 15:31:38,0.0
-2134,-2193,-3943,-25,92,11,2024-01-24 15:31:38,0.0
-1666,-1953,-3629,10,163,24,2024-01-24 15:31:38,0.0
-2381,-2329,-4378,23,30,177,2024-01-24 15:31:38,0.0
-2148,-2210,-4380,-86,231,168,2024-01-24 15:31:38,0.0
-2002,-2173,-4265,-172,401,161,2024-01-24 15:31:38,0.0
-1722,-1786,-4175,-259,801,129,2024-01-24 15:31:38,0.0
-1315,-1641,-3646,-325,972,161,2024-01-24 15:31:38,0.0
-1101,-1604,-4057,-311,823,234,2024-01-24 15:31:38,0.0
-749,-1519,-4197,-224,1225,209,2024-01-24 15:31:38,0.0
256,-1196,-4274,-152,1754,59,2024-01-24 15:31:38,0.0
70,-1094,-3950,-497,2815,-82,2024-01-24 15:31:38,0.0
790,-1000,-3969,-809,2601,-72,2024-01-24 15:31:38,0.0
1544,-1065,-3331,-923,3168,-323,2024-01-24 15:31:38,0.0
1831,-616,-3173,-643,3100,-500,2024-01-24 15:31:38,0.0
2165,-410,-3103,-897,2752,-503,2024-01-24 15:31:38,0.0
2929,-177,-2669,-838,2346,-297,2024-01-24 15:31:39,0.0
2878,-207,-2120,-669,1979,-308,2024-01-24 15:31:39,0.0
3008,56,-1908,-654,2054,-268,2024-01-24 15:31:39,0.0
3751,62,-1793,-649,1542,-187,2024-01-24 15:31:39,0.0
3722,62,-1449,-680,1828,-103,2024-01-24 15:31:39,0.0
3517,289,-114,-576,1000,-166,2024-01-24 15:31:39,0.0
4457,377,-708,-297,88,-112,2024-01-24 15:31:39,0.0
4273,321,-1454,-499,178,-195,2024-01-24 15:31:39,0.0
4076,166,-695,-333,181,-9,2024-01-24 15:31:39,0.0
4622,180,-617,-194,214,-21,2024-01-24 15:31:39,0.0
3826,389,32,-96,-62,-16,2024-01-24 15:31:39,0.0
4301,458,-400,-31,-470,52,2024-01-24 15:31:39,0.0
4398,248,-687,50,-141,37,2024-01-24 15:31:39,0.0
4269,439,-668,156,-180,30,2024-01-24 15:31:40,0.0
4322,322,-615,141,-114,84,2024-01-24 15:31:42,0.0
4191,302,-566,195,-272,62,2024-01-24 15:31:42,0.0
4261,328,-864,236,-288,54,2024-01-24 15:31:42,0.0
4109,168,-965,339,-588,95,2024-01-24 15:31:42,0.0
4086,112,-1204,448,-786,146,2024-01-24 15:31:42,0.0
3976,71,-1390,589,-830,202,2024-01-24 15:31:42,0.0
3665,226,-1166,578,-999,211,2024-01-24 15:31:42,0.0
3661,53,-1852,525,-1379,315,2024-01-24 15:31:42,0.0
3198,-213,-2260,546,-1540,246,2024-01-24 15:31:42,0.0
3856,322,-1182,-624,1062,-72,2024-01-24 15:31:42,0.0
4121,169,-960,-620,952,-2,2024-01-24 15:31:42,0.0
4290,212,-675,-617,735,-17,2024-01-24 15:31:42,0.0
4360,84,-270,-383,642,14,2024-01-24 15:31:42,0.0
3962,293,-311,-254,202,-55,2024-01-24 15:31:42,0.0
4481,133,-615,-217,-97,-24,2024-01-24 15:31:42,0.0
4289,198,-582,-56,50,-29,2024-01-24 15:31:42,0.0
4177,296,-116,70,-83,-6,2024-01-24 15:31:42,0.0
4221,323,-282,144,-357,4,2024-01-24 15:31:42,0.0
4367,271,-568,181,-294,-28,2024-01-24 15:31:42,0.0
4194,330,-577,155,-277,13,2024-01-24 15:31:42,0.0
4313,317,-602,150,-400,48,2024-01-24 15:31:42,0.0
4163,206,-716,214,-518,42,2024-01-24 15:31:42,0.0
4085,238,-953,231,-721,59,2024-01-24 15:31:42,0.0
4128,111,-1324,348,-775,142,2024-01-24 15:31:43,0.0
3673,-87,-1303,504,-1210,177,2024-01-24 15:31:43,0.0
3206,-89,-1738,730,-2002,276,2024-01-24 15:31:43,0.0
2969,-125,-2025,735,-2258,401,2024-01-24 15:31:43,0.0
2555,-89,-2178,665,-2333,458,2024-01-24 15:31:43,0.0
2715,-536,-2910,705,-2412,408,2024-01-24 15:31:43,0.0
1968,-447,-3268,558,-2733,350,2024-01-24 15:31:43,
2033,-566,-3258,333,-2562,248,2024-01-24 15:31:43,0.0
1465,-666,-3608,282,-2606,323,2024-01-24 15:31:43,0.0
1153,-869,-4118,170,-2569,-107,2024-01-24 15:31:43,0.0
687,-653,-4063,327,-2090,-103,2024-01-24 15:31:43,0.0
30,-1067,-3770,121,-2228,-72,2024-01-24 15:31:43,0.0
-547,-1500,-4246,251,-1232,-208,2024-01-24 15:31:43,0.0
-842,-1249,-3861,175,-896,-186,2024-01-24 15:31:43,0.0
-1682,-1358,-4361,132,-784,-136,2024-01-24 15:31:43,0.0
-1509,-1766,-4399,42,-599,-36,2024-01-24 15:31:43,0.0
-1407,-1426,-4389,5,-442,-49,2024-01-24 15:31:43,0.0
-2432,-1775,-4290,102,-110,-39,2024-01-24 15:31:44,0.0
-1597,-1495,-4068,81,-120,109,2024-01-24 15:31:44,0.0
-2188,-1814,-4622,7,-107,13,2024-01-24 15:31:44,0.0
-2124,-1805,-4531,-94,3,98,2024-01-24 15:31:44,0.0
-2101,-1826,-4475,-53,47,80,2024-01-24 15:31:44,0.0
-1945,-1780,-4488,-69,245,141,2024-01-24 15:31:44,0.0
-1829,-1575,-4384,-104,562,163,2024-01-24 15:31:44,0.0
-1364,-1610,-4476,-114,821,220,2024-01-24 15:31:46,0.0
-968,-1306,-4213,-205,1045,226,2024-01-24 15:31:46,0.0
-494,-1249,-4316,-159,1340,204,2024-01-24 15:31:46,0.0
150,-1029,-4080,-428,2374,54,2024-01-24 15:31:46,0.0
444,-861,-3592,-482,2942,-19,2024-01-24 15:31:46,0.0
1236,-688,-3619,-746,3085,-118,2024-01-24 15:31:46,0.0
1645,-625,-3378,-962,3561,-255,2024-01-24 15:31:46,0.0
1609,-525,-2922,-860,2649,-136,2024-01-24 15:31:46,0.0
2336,-146,-2569,-823,2383,-111,2024-01-24 15:31:46,0.0
2872,-388,-2462,533,-2132,284,2024-01-24 15:31:46,0.0
2750,-330,-2796,625,-2339,271,2024-01-24 15:31:46,0.0
2121,-320,-2684,622,-2295,278,2024-01-24 15:31:46,0.0
1874,-511,-3042,642,-2251,104,2024-01-24 15:31:46,0.0
1576,-587,-3339,458,-2655,111,2024-01-24 15:31:47,0.0
1178,-240,-3081,72,-2703,-35,2024-01-24 15:31:47,0.0
1342,-1096,-3977,437,-2813,-156,2024-01-24 15:31:47,0.0
317,-1000,-4248,497,-2172,-407,2024-01-24 15:31:47,0.0
86,-1358,-4433,322,-1618,-295,2024-01-24 15:31:47,0.0
-794,-1171,-4439,500,-1196,-203,2024-01-24 15:31:47,0.0
-1056,-1672,-4636,165,-887,-67,2024-01-24 15:31:47,0.0
-1529,-1531,-4238,81,-799,-12,2024-01-24 15:31:47,0.0
-1757,-1654,-4000,141,-634,-47,2024-01-24 15:31:47,0.0
3478,-156,-1714,-661,1735,-63,2024-01-24 15:31:47,0.0
3800,27,-1382,-497,1554,-119,2024-01-24 15:31:48,0.0
4030,0,-972,-363,1442,-197,2024-01-24 15:31:48,0.0
3928,407,-814,-323,886,-162,2024-01-24 15:31:48,0.0
4305,309,-854,-310,691,-150,2024-01-24 15:31:48,0.0
4119,297,-419,-361,778,-122,2024-01-24 15:31:48,0.0
4388,214,-309,-222,454,-87,2024-01-24 15:31:48,0.0
4221,376,48,-221,473,-45,2024-01-24 15:31:48,0.0
4195,221,327,-184,240,4,2024-01-24 15:31:48,0.0
4333,409,142,-42,-183,18,2024-01-24 15:31:48,0.0
4324,293,59,-1,-202,27,2024-01-24 15:31:48,0.0
4280,358,77,92,-146,39,2024-01-24 15:31:48,0.0
4312,434,1,54,-150,22,2024-01-24 15:31:48,0.0
4319,352,-114,56,-270,46,2024-01-24 15:31:48,0.0
4238,310,-105,98,-297,49,2024-01-24 15:31:48,0.0
4352,323,-245,168,-437,99,2024-01-24 15:31:48,0.0
4150,264,-439,250,-741,131,2024-01-24 15:31:48,0.0
4176,187,-614,346,-1133,211,2024-01-24 15:31:48,0.0
3970,26,-1089,441,-1474,281,2024-01-24 15:31:48,0.0
3760,51,-1201,441,-1607,361,2024-01-24 15:31:49,0.0
3722,-60,-1711,491,-1774,403,2024-01-24 15:31:49,0.0
3159,-291,-2119,487,-2051,422,2024-01-24 15:31:49,0.0
2647,-526,-2425,547,-2415,447,2024-01-24 15:31:49,0.0
2253,-497,-2736,536,-2519,449,2024-01-24 15:31:49,0.0
2183,-560,-2877,371,-2095,326,2024-01-24 15:31:49,0.0
2249,-181,-3671,277,-2421,374,2024-01-24 15:31:49,0.0
1579,-1153,-3040,-79,-2336,207,2024-01-24 15:31:49,0.0
1493,-767,-4040,330,-2541,10,2024-01-24 15:31:49,0.0
734,-894,-3773,425,-2267,-252,2024-01-24 15:31:49,0.0
522,-832,-3888,282,-1703,-118,2024-01-24 15:31:51,0.0
230,-1622,-4192,442,-1539,-307,2024-01-24 15:31:51,0.0
-738,-1278,-4262,147,-466,-244,2024-01-24 15:31:51,0.0
-270,-1483,-4327,349,-55,-141,2024-01-24 15:31:51,0.0
-696,-1965,-4675,172,137,-176,2024-01-24 15:31:51,0.0
-772,-1902,-4434,147,46,-4,2024-01-24 15:31:51,0.0
-959,-1719,-4753,17,-75,-2,2024-01-24 15:31:51,0.0
-746,-2015,-4620,-17,-120,-26,2024-01-24 15:31:51,0.0
-629,-1834,-3837,134,-124,2,2024-01-24 15:31:51,0.0
4317,78,-503,18,356,2,2024-01-24 15:31:51,0.0
4050,656,-20,-94,133,-59,2024-01-24 15:31:51,0.0
4399,88,-295,-35,-88,10,2024-01-24 15:31:51,0.0
4283,195,-231,142,-333,19,2024-01-24 15:31:51,0.0
4339,256,-381,139,-329,57,2024-01-24 15:31:51,0.0
4256,330,-371,173,-281,33,2024-01-24 15:31:51,0.0
4268,263,-554,161,-309,55,2024-01-24 15:31:51,0.0
4076,214,-907,185,-622,60,2024-01-24 15:31:51,0.0
3999,13,-947,382,-1156,139,2024-01-24 15:31:51,0.0
3912,273,-1211,489,-1269,273,2024-01-24 15:31:51,0.0
3343,173,-1440,419,-1665,309,2024-01-24 15:31:52,0.0
3125,-179,-1814,589,-2149,404,2024-01-24 15:31:52,0.0
3304,-194,-2295,733,-2334,449,2024-01-24 15:31:52,0.0
2804,-243,-2624,436,-1971,331,2024-01-24 15:31:52,0.0
2881,-715,-3295,462,-2148,290,2024-01-24 15:31:52,0.0
2257,-448,-3043,306,-2350,284,2024-01-24 15:31:52,0.0
1828,-894,-3525,389,-1882,141,2024-01-24 15:31:52,0.0
1685,-1149,-3622,580,-2094,-6,2024-01-24 15:31:52,0.0
1181,-660,-3936,515,-2408,-58,2024-01-24 15:31:52,0.0
755,-917,-3615,189,-1774,-284,2024-01-24 15:31:52,0.0
276,-1049,-3894,257,-1698,-293,2024-01-24 15:31:52,0.0
226,-1517,-3741,185,-1652,-227,2024-01-24 15:31:52,0.0
-950,-1422,-3992,401,-1108,-309,2024-01-24 15:31:52,
-130,-1450,-4224,558,-985,-214,2024-01-24 15:31:52,0.0
-1243,-2305,-4678,334,-675,-93,2024-01-24 15:31:52,0.0
-732,-1858,-4703,138,-325,-113,2024-01-24 15:31:52,0.0
-1881,-2273,-5160,83,-290,86,2024-01-24 15:31:52,0.0
-1297,-2227,-5121,-157,-63,145,2024-01-24 15:31:52,0.0
-1515,-2262,-5123,-178,31,180,2024-01-24 15:31:53,0.0
-1198,-2090,-4826,-62,199,168,2024-01-24 15:31:53,0.0
-1209,-1965,-4469,-124,425,109,2024-01-24 15:31:53,0.0
-714,-1694,-4178,-198,535,121,2024-01-24 15:31:53,0.0
-538,-1509,-4154,-268,942,92,2024-01-24 15:31:53,0.0
-373,-1365,-3953,-286,1425,28,2024-01-24 15:31:53,0.0
-98,-1351,-4035,-411,1868,-34,2024-01-24 15:31:53,0.0
541,-1261,-4355,-663,2025,96,2024-01-24 15:31:53,0.0
1161,-1119,-3595,-645,2572,-73,2024-01-24 15:31:53,0.0
1690,-989,-3530,-724,2560,-235,2024-01-24 15:31:53,0.0
1954,-826,-3228,-811,2298,-305,2024-01-24 15:31:53,0.0
2486,-755,-3241,-649,1564,-391,2024-01-24 15:31:53,0.0
2906,-566,-3252,-584,2333,-300,2024-01-24 15:31:53,0.0
2890,-146,-2248,-556,1898,-300,2024-01-24 15:31:53,0.0
3039,-16,-2077,-711,2186,-272,2024-01-24 15:31:53,0.0
3100,137,-1513,-684,1913,-217,2024-01-24 15:31:53,0.0
3462,2,-1176,-611,1441,-105,2024-01-24 15:31:53,0.0
3987,25,-1377,-606,1475,-148,2024-01-24 15:31:54,0.0
3861,205,-760,-548,1108,-204,2024-01-24 15:31:54,0.0
4231,321,-673,-490,538,-81,2024-01-24 15:31:54,0.0
4355,396,-482,-490,260,-83,2024-01-24 15:31:54,0.0
4102,132,-248,-393,182,-74,2024-01-24 15:31:54,0.0
4266,401,-222,-360,39,-53,2024-01-24 15:31:54,0.0
4382,293,-232,-304,19,-37,2024-01-24 15:31:54,0.0
4238,280,-223,-151,-55,-17,2024-01-24 15:31:54,0.0
4330,307,-244,-89,-195,-9,2024-01-24 15:31:54,0.0
4319,251,-234,8,-122,-1,2024-01-24 15:31:54,0.0
4338,387,-241,112,-256,2,2024-01-24 15:31:54,0.0
4218,252,-430,186,-249,45,2024-01-24 15:31:54,0.0
4313,334,-537,249,-245,36,2024-01-24 15:31:54,0.0
4370,383,-622,238,-251,53,2024-01-24 15:31:54,0.0
4088,286,-660,295,-291,75,2024-01-24 15:31:54,0.0
4247,196,-847,394,-728,135,2024-01-24 15:31:54,0.0
4050,161,-1079,420,-809,212,2024-01-24 15:31:54,0.0
3761,27,-1216,466,-1102,227,2024-01-24 15:31:54,0.0
3741,-116,-1686,704,-1384,361,2024-01-24 15:31:55,0.0
3478,19,-1704,708,-1901,379,2024-01-24 15:31:55,0.0
3077,-116,-2060,548,-1927,336,2024-01-24 15:31:55,0.0
3073,-434,-2654,578,-2211,312,2024-01-24 15:31:55,0.0
2402,-555,-2688,560,-2480,329,2024-01-24 15:31:55,0.0
2117,-585,-2903,422,-2289,156,2024-01-24 15:31:55,0.0
2037,-631,-3365,603,-2852,264,2024-01-24 15:31:55,0.0
1513,-1009,-3755,688,-2854,141,2024-01-24 15:31:55,0.0
1208,-882,-3955,505,-2269,-239,2024-01-24 15:31:55,0.0
250,-1131,-3580,432,-2316,-170,2024-01-24 15:31:55,0.0
285,-978,-3759,323,-1577,-137,2024-01-24 15:31:55,0.0
-194,-1762,-4351,136,-1214,-127,2024-01-24 15:31:55,0.0
-967,-1351,-4346,196,-615,-113,2024-01-24 15:31:55,0.0
-809,-1731,-4206,36,-343,-3,2024-01-24 15:31:55,0.0
-1096,-2003,-4686,132,-242,-51,2024-01-24 15:31:55,0.0
-1085,-2017,-4278,-24,-153,93,2024-01-24 15:31:55,0.0
-1629,-1910,-4298,-33,-202,94,2024-01-24 15:31:55,0.0
-1212,-1993,-4281,-64,-68,80,2024-01-24 15:31:56,0.0
-1263,-1746,-4426,-16,146,77,2024-01-24 15:31:56,0.0
-1391,-1849,-4592,-44,205,109,2024-01-24 15:31:56,0.0
-1180,-1808,-4771,-212,197,128,2024-01-24 15:31:56,0.0
-1232,-1901,-4665,-200,177,141,2024-01-24 15:31:56,0.0
-1099,-1707,-4585,-142,294,128,2024-01-24 15:31:56,0.0
-947,-1531,-4839,-300,928,220,2024-01-24 15:31:56,0.0
-258,-1388,-4128,-403,927,236,2024-01-24 15:31:56,0.0
-137,-1376,-4399,-331,1277,149,2024-01-24 15:31:56,0.0
27,-1208,-3928,-292,1808,59,2024-01-24 15:31:56,0.0
732,-969,-3737,-314,2121,-66,2024-01-24 15:31:56,0.0
907,-889,-3237,-400,2092,51,2024-01-24 15:31:56,0.0
1600,-915,-3635,-446,2030,-38,2024-01-24 15:31:56,0.0
2209,-475,-3860,-573,2310,-194,2024-01-24 15:31:56,0.0
2184,-370,-3092,-703,1767,-146,2024-01-24 15:31:56,0.0
2554,-506,-2867,-769,1832,-130,2024-01-24 15:31:56,0.0
2654,-210,-2412,-767,1951,-211,2024-01-24 15:31:56,0.0
2827,-230,-2056,-628,1942,-241,2024-01-24 15:31:56,0.0
3526,-153,-2110,-581,2071,-240,2024-01-24 15:31:57,0.0
3656,-45,-1477,-401,1990,-213,2024-01-24 15:31:57,0.0
3758,64,-1268,-409,1556,-256,2024-01-24 15:31:57,0.0
4007,235,-729,-377,1223,-236,2024-01-24 15:31:57,0.0
4210,360,-636,-381,513,-157,2024-01-24 15:31:57,0.0
4481,-49,-855,-309,568,-114,2024-01-24 15:31:57,0.0
4107,299,-178,-159,337,-68,2024-01-24 15:31:57,0.0
4300,404,-22,-168,4,-8,2024-01-24 15:31:57,0.0
4405,197,-203,-99,-155,-11,2024-01-24 15:31:57,0.0
4230,315,-271,-81,-133,-17,2024-01-24 15:31:57,0.0
4255,237,-204,-26,-96,10,2024-01-24 15:31:57,0.0
4257,263,-304,17,-140,33,2024-01-24 15:31:57,0.0
4223,278,-277,110,-199,42,2024-01-24 15:31:57,0.0
4298,305,-456,138,-340,61,2024-01-24 15:31:57,0.0
4283,288,-429,197,-277,67,2024-01-24 15:31:57,0.0
4206,240,-496,238,-452,72,2024-01-24 15:31:57,0.0
4129,241,-875,258,-807,108,2024-01-24 15:31:57,0.0
4045,192,-1332,344,-820,164,2024-01-24 15:31:58,0.0
3874,30,-1211,417,-1319,290,2024-01-24 15:31:58,0.0
3591,-58,-1505,502,-1468,328,2024-01-24 15:31:58,0.0
3350,14,-1919,452,-1753,392,2024-01-24 15:31:58,0.0
2912,-366,-2028,440,-2173,331,2024-01-24 15:31:58,0.0
3270,-355,-2525,491,-1726,320,2024-01-24 15:31:58,0.0
2849,-207,-2992,424,-2070,264,2024-01-24 15:31:58,0.0
2544,-759,-3138,375,-2669,364,2024-01-24 15:31:58,
1810,-1167,-3238,649,-2387,281,2024-01-24 15:31:58,0.0
1685,-248,-3827,715,-2061,54,2024-01-24 15:31:58,0.0
1113,-804,-3649,246,-2455,-19,2024-01-24 15:31:58,0.0
878,-1232,-3572,128,-2166,-128,2024-01-24 15:31:58,0.0
235,-1003,-3728,399,-1848,-266,2024-01-24 15:31:58,0.0
-79,-1421,-4233,301,-1691,-200,2024-01-24 15:31:58,0.0
-231,-1584,-3925,281,-776,-215,2024-01-24 15:31:58,0.0
-688,-1388,-4201,243,-322,-105,2024-01-24 15:31:58,0.0
-1018,-1746,-4079,173,-268,-124,2024-01-24 15:31:58,0.0
-939,-1803,-4388,46,-198,-126,2024-01-24 15:31:58,0.0
-858,-2532,-4864,113,-419,-158,2024-01-24 15:31:59,0.0
-1139,-1903,-4696,24,72,-10,2024-01-24 15:31:59,0.0
-1241,-2376,-5239,-107,227,3,2024-01-24 15:31:59,0.0
-1113,-2131,-5153,-213,276,201,2024-01-24 15:31:59,0.0
-1008,-2029,-4997,-299,271,256,2024-01-24 15:31:59,0.0
-776,-1753,-4587,-290,254,319,2024-01-24 15:31:59,0.0
-804,-1911,-4145,-128,-12,316,2024-01-24 15:31:59,0.0
-403,-1497,-4851,-197,649,232,2024-01-24 15:31:59,0.0
-117,-1322,-3882,-210,1263,139,2024-01-24 15:31:59,0.0
0,-1225,-4105,-291,1386,157,2024-01-24 15:31:59,0.0
598,-1024,-4104,-426,1770,127,2024-01-24 15:31:59,0.0
1089,-1000,-3770,-479,1990,-17,2024-01-24 15:31:59,0.0
1451,-769,-3671,-654,2982,-252,2024-01-24 15:31:59,0.0
1799,-752,-3479,-724,2900,-72,2024-01-24 15:31:59,0.0
2350,-554,-3167,-787,2124,-171,2024-01-24 15:31:59,0.0
2476,-521,-2642,-609,1970,-273,2024-01-24 15:31:59,0.0
2962,-530,-2234,-541,1632,-360,2024-01-24 15:31:59,0.0
2942,-210,-2224,-351,2139,-515,2024-01-24 15:32:00,0.0
3142,-361,-1879,-374,2119,-444,2024-01-24 15:32:00,0.0
3710,-89,-1423,-203,1392,-446,2024-01-24 15:32:00,0.0
3767,225,-1026,-85,1455,-177,2024-01-24 15:32:00,0.0
3911,486,-583,-427,952,-185,2024-01-24 15:32:00,0.0
4260,322,-413,-440,678,-134,2024-01-24 15:32:00,0.0
4360,88,-648,-414,525,27,2024-01-24 15:32:00,0.0
4225,60,-486,-278,233,184,2024-01-24 15:32:00,0.0
4233,154,18,-246,301,84,2024-01-24 15:32:00,0.0
4303,233,101,-167,68,8,2024-01-24 15:32:00,0.0
4256,96,-345,-137,64,39,2024-01-24 15:32:00,0.0
4312,14,-196,-39,88,50,2024-01-24 15:32:00,0.0
4341,189,-113,46,-13,50,2024-01-24 15:32:00,0.0
4284,186,-99,15,31,32,2024-01-24 15:32:00,0.0
4299,129,-129,87,-165,51,2024-01-24 15:32:00,0.0
4378,214,-170,113,-102,63,2024-01-24 15:32:00,0.0
4275,81,-208,77,-26,92,2024-01-24 15:32:00,0.0
4420,-19,-176,145,-24,80,2024-01-24 15:32:00,0.0
4283,13,-21,314,-139,70,2024-01-24 15:32:01,0.0
4241,142,-173,353,-475,65,2024-01-24 15:32:01,0.0
4263,52,-411,355,-502,79,2024-01-24 15:32:01,0.0
4067,-51,-573,384,-704,63,2024-01-24 15:32:01,0.0
4083,-62,-862,452,-795,80,2024-01-24 15:32:01,0.0
3781,-60,-1040,454,-1181,236,2024-01-24 15:32:01,0.0
3521,-8,-1335,418,-1857,462,2024-01-24 15:32:01,0.0
3375,-468,-1767,325,-1925,632,2024-01-24 15:32:01,0.0
2905,-864,-1722,445,-2031,546,2024-01-24 15:32:01,0.0
2436,-115,-2040,561,-2416,527,2024-01-24 15:32:01,0.0
2497,-450,-3251,307,-2871,838,2024-01-24 15:32:01,0.0
2098,-558,-2767,0,-3015,553,2024-01-24 15:32:01,0.0
2007,-1143,-3912,224,-2557,385,2024-01-24 15:32:01,0.0
1712,-1166,-4247,184,-2631,-71,2024-01-24 15:32:01,0.0
1025,-1114,-3754,260,-2070,-256,2024-01-24 15:32:01,0.0
267,-1361,-4195,105,-2299,-241,2024-01-24 15:32:01,0.0
-65,-1315,-3708,364,-1429,-317,2024-01-24 15:32:01,0.0
-478,-1102,-4362,331,-1679,-249,2024-01-24 15:32:02,0.0
-1196,-1917,-4181,130,-958,26,2024-01-24 15:32:02,0.0
-1406,-2090,-3820,51,-524,-71,2024-01-24 15:32:02,0.0
-1826,-1911,-4630,46,-332,-56,2024-01-24 15:32:02,0.0
-1536,-2006,-4652,39,-5,4,2024-01-24 15:32:02,0.0
-1516,-1871,-4110,38,-20,-18,2024-01-24 15:32:02,0.0
-1581,-1895,-4131,74,-55,11,2024-01-24 15:32:02,0.0
-1343,-1938,-3934,138,22,-25,2024-01-24 15:32:02,0.0
-1481,-1740,-4079,54,-10,40,2024-01-24 15:32:02,0.0
-1537,-2008,-4612,-107,89,111,2024-01-24 15:32:02,0.0
-1512,-1939,-4541,-192,198,251,2024-01-24 15:32:02,0.0
-1344,-1888,-4516,-200,327,303,2024-01-24 15:32:02,0.0
-1085,-1695,-4458,-157,642,386,2024-01-24 15:32:02,0.0
-612,-1539,-4211,-310,959,434,2024-01-24 15:32:02,0.0
-381,-1249,-3908,-371,1670,377,2024-01-24 15:32:02,0.0
20,-1328,-4190,-329,2076,163,2024-01-24 15:32:02,0.0
459,-1159,-3903,-445,2210,8,2024-01-24 15:32:02,0.0
1129,-793,-3725,-688,2615,-117,2024-01-24 15:32:02,0.0
1348,-885,-3428,-846,2484,-198,2024-01-24 15:32:03,0.0
1983,-633,-3295,-650,2338,-210,2024-01-24 15:32:03,0.0
2085,-477,-3099,-761,1932,-243,2024-01-24 15:32:03,0.0
2585,-371,-2562,-750,1828,-188,2024-01-24 15:32:03,0.0
2976,-244,-2644,-514,2257,-154,2024-01-24 15:32:03,0.0
3267,-34,-2166,-512,2128,-169,2024-01-24 15:32:03,0.0
3204,147,-1656,-375,1802,-177,2024-01-24 15:32:03,0.0
3672,-185,-1456,-356,1594,-58,2024-01-24 15:32:03,0.0
3787,-87,-1118,-427,1281,-214,2024-01-24 15:32:03,0.0
4428,-228,-1392,7,349,-78,2024-01-24 15:32:03,0.0
3898,216,-1001,278,718,-114,2024-01-24 15:32:03,0.0
4304,723,-619,-85,131,-129,2024-01-24 15:32:03,0.0
4123,-135,-243,-138,147,-15,2024-01-24 15:32:03,0.0
4341,290,-502,79,160,-85,2024-01-24 15:32:03,0.0
4156,346,-372,-70,24,-77,2024-01-24 15:32:03,0.0
4407,118,-559,9,-79,-57,2024-01-24 15:32:03,0.0
4266,212,-424,46,-63,-56,2024-01-24 15:32:03,0.0
4289,260,-395,42,-62,-31,2024-01-24 15:32:03,0.0
4302,333,-564,61,-73,-25,2024-01-24 15:32:04,0.0
4239,227,-643,40,-90,9,2024-01-24 15:32:04,
4368,197,-660,68,-146,18,2024-01-24 15:32:04,0.0
4132,184,-574,95,-222,46,2024-01-24 15:32:04,0.0
4322,19,-828,264,-427,38,2024-01-24 15:32:04,0.0
4077,81,-1054,442,-600,79,2024-01-24 15:32:04,0.0
3932,90,-1259,638,-1015,106,2024-01-24 15:32:04,0.0
3721,-34,-1607,734,-1347,292,2024-01-24 15:32:04,0.0
3334,-93,-1713,804,-1913,362,2024-01-24 15:32:04,0.0
2845,-36,-1758,832,-2179,506,2024-01-24 15:32:04,0.0
2865,-364,-2313,707,-2086,526,2024-01-24 15:32:04,0.0
2697,-368,-3095,412,-2499,549,2024-01-24 15:32:04,0.0
2487,-705,-2787,357,-2438,496,2024-01-24 15:32:04,0.0
2017,-851,-3109,498,-2220,326,2024-01-24 15:32:04,0.0
1832,-848,-3469,507,-2246,206,2024-01-24 15:32:04,0.0
1030,-849,-3723,297,-1645,-14,2024-01-24 15:32:04,0.0
1355,-1643,-3436,385,-1770,-312,2024-01-24 15:32:04,0.0
368,-908,-3747,620,-1415,-154,2024-01-24 15:32:05,0.0
298,-1973,-4378,335,-969,-256,2024-01-24 15:32:05,0.0
116,-1909,-4442,302,-1058,-210,2024-01-24 15:32:05,0.0
-358,-1283,-4177,91,-587,-162,2024-01-24 15:32:05,0.0
-219,-2291,-4502,89,-398,25,2024-01-24 15:32:05,0.0
-748,-2272,-4938,-46,-322,72,2024-01-24 15:32:05,0.0
-789,-2269,-5090,-33,-249,152,2024-01-24 15:32:05,0.0
-825,-2546,-5238,-134,-70,158,2024-01-24 15:32:05,0.0
-880,-2233,-5031,-144,-30,159,2024-01-24 15:32:05,0.0
-807,-2166,-4837,-132,247,212,2024-01-24 15:32:05,0.0
-151,-1705,-4813,-99,572,325,2024-01-24 15:32:05,0.0
-240,-1968,-4856,-282,1423,140,2024-01-24 15:32:05,0.0
523,-1628,-4429,-431,2024,-98,2024-01-24 15:32:05,0.0
766,-1370,-4119,-378,2245,-156,2024-01-24 15:32:05,0.0
1302,-1243,-3651,-666,2107,-382,2024-01-24 15:32:05,0.0
1691,-1106,-3568,-859,2134,-325,2024-01-24 15:32:05,0.0
1890,-626,-3324,-948,2283,-395,2024-01-24 15:32:05,0.0
2249,-796,-2981,-821,2153,-286,2024-01-24 15:32:05,0.0
2769,-466,-2810,-797,1749,-156,2024-01-24 15:32:06,0.0
2788,-224,-2286,-910,1879,-252,2024-01-24 15:32:06,0.0
2662,-279,-1918,-807,1905,-145,2024-01-24 15:32:06,0.0
2929,-420,-1881,-687,1667,-124,2024-01-24 15:32:06,0.0
3657,-440,-1759,-423,1217,-100,2024-01-24 15:32:06,0.0
3749,15,-981,-146,1561,-62,2024-01-24 15:32:06,0.0
4211,290,-868,-296,988,-120,2024-01-24 15:32:06,0.0
4166,133,-718,-147,708,-71,2024-01-24 15:32:06,0.0
4167,503,-453,-197,640,-88,2024-01-24 15:32:06,0.0
4150,383,-462,-407,405,-86,2024-01-24 15:32:06,0.0
4335,182,-373,-302,44,-67,2024-01-24 15:32:06,0.0
4292,204,-237,-183,-13,-67,2024-01-24 15:32:06,0.0
4270,201,-214,-107,-22,-26,2024-01-24 15:32:06,0.0
4353,328,-158,-61,-89,-17,2024-01-24 15:32:06,0.0
4250,274,-283,-46,-121,4,2024-01-24 15:32:06,0.0
4346,243,-351,-38,-227,0,2024-01-24 15:32:06,0.0
4258,258,-416,-33,-201,38,2024-01-24 15:32:06,0.0
4282,213,-510,5,-203,71,2024-01-24 15:32:07,0.0
4352,149,-429,34,-242,64,2024-01-24 15:32:07,0.0
4259,100,-523,154,-258,59,2024-01-24 15:32:07,0.0
4274,-8,-714,318,-381,73,2024-01-24 15:32:07,0.0
4178,129,-866,458,-565,98,2024-01-24 15:32:07,0.0
4095,50,-1007,547,-800,136,2024-01-24 15:32:07,0.0
3927,29,-1220,622,-982,175,2024-01-24 15:32:07,0.0
3470,-28,-1792,608,-1735,366,2024-01-24 15:32:07,0.0
3266,-236,-1675,617,-2236,492,2024-01-24 15:32:07,0.0
2600,-316,-1689,674,-2303,641,2024-01-24 15:32:07,0.0
2975,-636,-3019,433,-2045,498,2024-01-24 15:32:07,0.0
2202,-274,-2519,422,-2539,455,2024-01-24 15:32:07,0.0
1802,-403,-3160,248,-2673,506,2024-01-24 15:32:07,0.0
2213,-1264,-3833,203,-2951,416,2024-01-24 15:32:07,0.0
1735,-1050,-3890,300,-2469,-32,2024-01-24 15:32:07,0.0
766,-1078,-3049,258,-2430,-288,2024-01-24 15:32:07,0.0
650,-807,-4002,486,-1940,-304,2024-01-24 15:32:07,0.0
-386,-1570,-3965,165,-1793,-261,2024-01-24 15:32:07,0.0
-690,-1253,-4762,176,-1359,-164,2024-01-24 15:32:08,0.0
-1195,-1813,-4237,-70,-658,58,2024-01-24 15:32:08,0.0
-1030,-1964,-4430,-107,-265,128,2024-01-24 15:32:08,0.0
-1323,-1530,-4914,56,72,35,2024-01-24 15:32:08,0.0
-1365,-2047,-4642,17,96,1,2024-01-24 15:32:08,0.0
-1404,-1879,-4490,64,144,0,2024-01-24 15:32:08,0.0
-1394,-1720,-4285,71,71,78,2024-01-24 15:32:08,0.0
-1259,-1869,-4445,64,-18,129,2024-01-24 15:32:08,0.0
-1346,-1897,-4545,52,-77,136,2024-01-24 15:32:08,0.0
-1295,-1866,-4742,-49,83,139,2024-01-24 15:32:08,0.0
-1254,-1863,-4714,-101,322,217,2024-01-24 15:32:08,0.0
-915,-1585,-4460,-168,691,207,2024-01-24 15:32:08,0.0
-391,-1319,-4511,-266,1186,276,2024-01-24 15:32:08,0.0
-181,-1333,-4008,-376,1863,211,2024-01-24 15:32:08,0.0
271,-1390,-4286,-171,2073,200,2024-01-24 15:32:08,0.0
957,-1214,-4235,-418,2611,-21,2024-01-24 15:32:08,0.0
1318,-688,-3416,-746,2834,-180,2024-01-24 15:32:08,0.0
1821,-912,-2762,-852,2189,-257,2024-01-24 15:32:08,0.0
1951,-646,-2604,-504,2158,-368,2024-01-24 15:32:09,0.0
2567,-384,-3081,-421,2152,-429,2024-01-24 15:32:09,0.0
2460,-411,-2584,-528,2399,-309,2024-01-24 15:32:09,0.0
2943,6,-2272,-548,2000,-343,2024-01-24 15:32:09,0.0
3262,-154,-1900,-677,2018,-218,2024-01-24 15:32:09,0.0
3759,-169,-1391,-591,1798,-187,2024-01-24 15:32:09,0.0
3907,-137,-1158,-569,1790,-190,2024-01-24 15:32:09,0.0
3843,77,-491,-432,1269,-207,2024-01-24 15:32:09,0.0
4314,225,-583,-374,678,-166,2024-01-24 15:32:09,0.0
4324,111,-232,-274,-489,-138,2024-01-24 15:32:09,0.0
4076,-215,-566,-82,97,-73,2024-01-24 15:32:09,0.0
4322,412,-636,-100,-18,-93,2024-01-24 15:32:09,0.0
4205,256,-330,-170,-35,-29,2024-01-24 15:32:09,0.0
4305,229,-259,-34,-274,-22,2024-01-24 15:32:09,
4231,193,-297,40,-318,12,2024-01-24 15:32:09,0.0
4297,290,-499,142,-324,33,2024-01-24 15:32:09,0.0
4304,274,-635,118,-317,25,2024-01-24 15:32:09,0.0
4301,387,-591,88,-243,34,2024-01-24 15:32:10,0.0
4196,236,-623,75,-342,68,2024-01-24 15:32:10,0.0
4203,94,-763,142,-402,57,2024-01-24 15:32:10,0.0
4219,215,-929,238,-474,68,2024-01-24 15:32:10,0.0
4127,106,-1116,269,-619,80,2024-01-24 15:32:10,0.0
4174,37,-1326,345,-787,111,2024-01-24 15:32:10,0.0
3658,-125,-1572,413,-1097,155,2024-01-24 15:32:10,0.0
3656,-173,-2153,591,-1339,194,2024-01-24 15:32:10,0.0
3109,39,-1887,443,-1726,362,2024-01-24 15:32:10,0.0
3162,-318,-2274,512,-1829,390,2024-01-24 15:32:10,0.0
2653,-703,-2599,618,-2009,325,2024-01-24 15:32:10,0.0
2224,-424,-2851,621,-2022,303,2024-01-24 15:32:10,0.0
2174,-425,-3121,401,-2168,365,2024-01-24 15:32:10,0.0
1912,-793,-3210,375,-1993,258,2024-01-24 15:32:10,0.0
1751,-953,-3777,374,-2211,134,2024-01-24 15:32:10,0.0
1595,-1125,-3914,602,-2515,-87,2024-01-24 15:32:10,0.0
753,-304,-3704,348,-2275,-256,2024-01-24 15:32:10,0.0
312,-1417,-3811,508,-2821,-326,2024-01-24 15:32:10,0.0
7,-1782,-4391,32,-1639,-303,2024-01-24 15:32:11,0.0
-1014,-1391,-4014,280,-876,-221,2024-01-24 15:32:11,0.0
-827,-2437,-4413,141,-335,-137,2024-01-24 15:32:11,0.0
-989,-1512,-4258,256,-191,-490,2024-01-24 15:32:11,0.0
-1549,-2001,-4597,282,-129,-277,2024-01-24 15:32:11,0.0
-843,-2283,-4855,100,-189,-106,2024-01-24 15:32:11,0.0
-1383,-2353,-4987,-42,-122,45,2024-01-24 15:32:11,0.0
-1313,-2378,-4876,-188,50,108,2024-01-24 15:32:11,0.0
-1268,-2257,-4669,-244,145,201,2024-01-24 15:32:11,0.0
-1035,-2116,-4442,-238,313,179,2024-01-24 15:32:11,0.0
-747,-1912,-4544,-180,820,210,2024-01-24 15:32:11,0.0
-451,-1822,-4328,-179,1444,135,2024-01-24 15:32:11,0.0
-92,-1396,-4101,-219,2060,52,2024-01-24 15:32:11,0.0
172,-1009,-3881,-416,1705,65,2024-01-24 15:32:11,0.0
974,-1201,-3805,-880,1966,138,2024-01-24 15:32:11,0.0
1185,-1407,-3833,-857,1898,-21,2024-01-24 15:32:11,0.0
1774,-944,-3589,-816,2074,-134,2024-01-24 15:32:11,0.0
1986,-568,-3274,-782,2516,-281,2024-01-24 15:32:12,0.0
2060,-602,-2693,-731,2198,-244,2024-01-24 15:32:12,0.0
2670,-446,-2954,-777,1771,-170,2024-01-24 15:32:12,0.0
3115,-626,-2360,-673,1551,-211,2024-01-24 15:32:12,0.0
2819,-94,-1913,-451,1732,-287,2024-01-24 15:32:12,0.0
3534,318,-2200,-544,1174,-215,2024-01-24 15:32:12,0.0
4170,-191,-1991,-474,1395,-133,2024-01-24 15:32:12,0.0
3378,72,-1319,-469,1274,-136,2024-01-24 15:32:12,0.0
4013,438,-1009,-427,1292,-108,2024-01-24 15:32:12,0.0
4303,116,-985,-471,883,-10,2024-01-24 15:32:12,0.0
4142,203,-458,-432,875,-55,2024-01-24 15:32:12,0.0
4071,253,-163,-314,544,-79,2024-01-24 15:32:12,0.0
4342,331,-310,-243,468,-9,2024-01-24 15:32:12,0.0
4296,270,-22,-274,268,-62,2024-01-24 15:32:12,0.0
4227,228,-39,-231,245,-44,2024-01-24 15:32:12,0.0
4272,154,77,-127,200,-38,2024-01-24 15:32:12,0.0
4390,188,40,48,6,5,2024-01-24 15:32:12,0.0
4245,424,144,29,-40,-1,2024-01-24 15:32:12,0.0
4266,362,326,-11,-124,21,2024-01-24 15:32:13,0.0
4368,301,116,-62,-138,41,2024-01-24 15:32:13,0.0
4317,203,74,-12,-76,30,2024-01-24 15:32:13,0.0
4386,326,-23,19,-100,22,2024-01-24 15:32:13,0.0
4205,259,64,90,-172,45,2024-01-24 15:32:13,0.0
4282,304,31,185,-446,64,2024-01-24 15:32:13,0.0
4165,219,-298,227,-622,96,2024-01-24 15:32:13,0.0
4230,194,-494,417,-881,149,2024-01-24 15:32:13,0.0
3984,40,-812,422,-979,178,2024-01-24 15:32:13,0.0
3752,7,-1069,506,-1307,250,2024-01-24 15:32:13,0.0
3665,-20,-1436,552,-1657,368,2024-01-24 15:32:13,0.0
2987,-68,-1434,685,-2269,488,2024-01-24 15:32:13,0.0
3041,-268,-1620,888,-2284,414,2024-01-24 15:32:13,0.0
2890,-309,-2576,555,-2412,380,2024-01-24 15:32:13,0.0
2659,-518,-3477,566,-3293,366,2024-01-24 15:32:13,0.0
2191,-558,-2714,516,-2935,188,2024-01-24 15:32:13,0.0
1835,-636,-3647,507,-2146,98,2024-01-24 15:32:13,0.0
1531,-928,-4385,267,-2496,60,2024-01-24 15:32:13,0.0
861,-1632,-3916,170,-2492,-224,2024-01-24 15:32:14,0.0
452,-926,-3786,446,-1975,-302,2024-01-24 15:32:14,0.0
-513,-1348,-4436,135,-2074,-161,2024-01-24 15:32:14,0.0
-837,-1310,-4279,245,-1581,-220,2024-01-24 15:32:14,0.0
-1068,-1373,-4302,181,-834,-173,2024-01-24 15:32:14,0.0
-1364,-2163,-4077,125,-571,-205,2024-01-24 15:32:14,0.0
-1529,-1773,-4095,252,-258,-298,2024-01-24 15:32:14,0.0
-1436,-1743,-4113,44,-58,-150,2024-01-24 15:32:14,0.0
-1607,-1896,-4259,31,93,-59,2024-01-24 15:32:14,0.0
-1585,-1934,-4116,-6,112,-17,2024-01-24 15:32:14,0.0
-1702,-1991,-4341,11,49,57,2024-01-24 15:32:14,0.0
-1552,-1992,-4154,17,74,99,2024-01-24 15:32:14,0.0
-1566,-1956,-4465,-48,87,179,2024-01-24 15:32:14,0.0
-1463,-2039,-4471,-98,280,223,2024-01-24 15:32:14,0.0
-1409,-1938,-4581,-184,653,283,2024-01-24 15:32:14,0.0
-874,-1742,-4512,-233,805,304,2024-01-24 15:32:14,0.0
-602,-1564,-4431,-341,1600,300,2024-01-24 15:32:14,0.0
116,-1333,-4016,-499,2278,195,2024-01-24 15:32:15,0.0
464,-1048,-3649,-560,2580,115,2024-01-24 15:32:15,0.0
991,-834,-3747,-744,2650,25,2024-01-24 15:32:15,0.0
1577,-1059,-3334,-833,2589,-168,2024-01-24 15:32:15,0.0
1767,-747,-3175,-850,2512,-328,2024-01-24 15:32:15,0.0
2046,-225,-3080,-644,2228,-185,2024-01-24 15:32:15,0.0
2139,-298,-2893,-679,2040,-135,2024-01-24 15:32:15,0.0
2985,-419,-2641,-780,2166,13,2024-01-24 15:32:15,0.0
2876,-25,-1545,-742,1868,-143,2024-01-24 15:32:15,
3541,-58,-1671,-433,1520,44,2024-01-24 15:32:15,0.0
4039,-77,-1599,-461,1196,-99,2024-01-24 15:32:15,0.0
4029,-224,-1265,-301,1138,-119,2024-01-24 15:32:15,0.0
4057,7,-780,-159,871,-128,2024-01-24 15:32:15,0.0
4401,64,-784,-72,697,-127,2024-01-24 15:32:15,0.0
4218,170,-265,-58,696,-201,2024-01-24 15:32:15,0.0
4103,320,-223,-77,279,-198,2024-01-24 15:32:15,0.0
4355,333,-1003,-77,-60,-139,2024-01-24 15:32:15,0.0
4229,149,-598,6,-78,-71,2024-01-24 15:32:15,0.0
4301,307,-377,6,-106,-41,2024-01-24 15:32:16,0.0
4237,255,-345,27,-124,-11,2024-01-24 15:32:16,0.0
4292,303,-548,68,-109,-24,2024-01-24 15:32:16,0.0
4230,282,-587,56,-248,14,2024-01-24 15:32:16,0.0
4254,266,-590,90,-271,36,2024-01-24 15:32:16,0.0
4202,225,-529,107,-345,53,2024-01-24 15:32:16,0.0
4183,188,-814,157,-398,65,2024-01-24 15:32:16,0.0
4130,194,-1066,148,-540,116,2024-01-24 15:32:16,0.0
4048,103,-1200,225,-826,163,2024-01-24 15:32:16,0.0
3845,-54,-1531,307,-1112,282,2024-01-24 15:32:16,0.0
3833,-151,-1699,431,-1387,350,2024-01-24 15:32:16,0.0
3383,2,-1594,449,-1653,405,2024-01-24 15:32:16,0.0
3171,-175,-1916,376,-1658,377,2024-01-24 15:32:16,0.0
2993,-431,-2491,473,-1853,420,2024-01-24 15:32:16,0.0
2713,-485,-2827,490,-1861,305,2024-01-24 15:32:16,0.0
2368,-579,-2850,517,-1997,344,2024-01-24 15:32:16,0.0
2100,-614,-3274,427,-2123,264,2024-01-24 15:32:16,0.0
1792,-890,-3280,370,-2071,156,2024-01-24 15:32:17,0.0
1461,-693,-3791,537,-2252,88,2024-01-24 15:32:17,0.0
1206,-1133,-3809,255,-2488,-169,2024-01-24 15:32:17,0.0
803,-1229,-4192,349,-2039,-318,2024-01-24 15:32:17,0.0
62,-1456,-3828,358,-2124,-309,2024-01-24 15:32:17,0.0
-471,-1071,-4245,357,-1589,-367,2024-01-24 15:32:17,0.0
-263,-1815,-4194,349,-858,-244,2024-01-24 15:32:17,0.0
-1198,-1808,-3849,261,-580,-366,2024-01-24 15:32:17,0.0
-1200,-1586,-4210,85,-361,-191,2024-01-24 15:32:17,0.0
-718,-2359,-4429,17,-78,-55,2024-01-24 15:32:17,0.0
-1470,-2250,-4743,-46,-67,1,2024-01-24 15:32:17,0.0
-1212,-2337,-4845,-68,-3,74,2024-01-24 15:32:17,0.0
-1422,-2167,-4832,-139,-48,145,2024-01-24 15:32:17,0.0
-1204,-2262,-4778,-161,128,194,2024-01-24 15:32:17,0.0
-1090,-1888,-4490,-130,261,212,2024-01-24 15:32:17,0.0
-894,-1718,-4510,-168,728,240,2024-01-24 15:32:17,0.0
-529,-1641,-4164,-282,1213,227,2024-01-24 15:32:17,0.0
-207,-1643,-4200,-237,1691,212,2024-01-24 15:32:17,0.0
331,-1516,-4159,-367,1876,45,2024-01-24 15:32:18,0.0
1047,-1344,-4061,-585,2191,-125,2024-01-24 15:32:18,0.0
1169,-1083,-3729,-594,2364,-303,2024-01-24 15:32:18,0.0
1830,-1008,-3486,-859,2470,-416,2024-01-24 15:32:18,0.0
2101,-680,-3052,-658,2436,-479,2024-01-24 15:32:18,0.0
2487,-636,-2945,-590,2368,-499,2024-01-24 15:32:18,0.0
2585,-560,-2276,-654,2351,-497,2024-01-24 15:32:18,0.0
2525,83,-1817,-667,2265,-450,2024-01-24 15:32:18,0.0
2975,37,-1648,-690,1490,-237,2024-01-24 15:32:18,0.0
3801,-128,-1667,-504,1267,-79,2024-01-24 15:32:18,0.0
4216,104,-1578,-508,1278,-21,2024-01-24 15:32:18,0.0
3961,187,-949,-584,1230,-100,2024-01-24 15:32:18,0.0
3926,249,-571,-610,824,-78,2024-01-24 15:32:18,0.0
4309,288,-623,-656,614,-151,2024-01-24 15:32:18,0.0
4318,195,-554,-688,407,-152,2024-01-24 15:32:18,0.0
4242,-191,-174,-411,485,-84,2024-01-24 15:32:18,0.0
4339,450,-106,-219,195,-113,2024-01-24 15:32:18,0.0
4209,335,-60,-310,162,-96,2024-01-24 15:32:18,0.0
4405,214,18,-220,34,-78,2024-01-24 15:32:19,0.0
4252,274,83,-167,-87,-14,2024-01-24 15:32:19,0.0
4349,377,-70,-63,-187,10,2024-01-24 15:32:19,0.0
4204,348,-19,80,-117,28,2024-01-24 15:32:19,0.0
4329,437,-101,172,-204,47,2024-01-24 15:32:19,0.0
4448,294,-4,240,-268,97,2024-01-24 15:32:19,0.0
4281,374,-89,296,-282,40,2024-01-24 15:32:19,0.0
4112,492,-498,253,-983,48,2024-01-24 15:32:19,0.0
4108,106,-963,300,-985,136,2024-01-24 15:32:19,0.0
3960,273,-1175,406,-1229,161,2024-01-24 15:32:19,0.0
3556,79,-1556,548,-1609,349,2024-01-24 15:32:19,0.0
3252,-98,-1668,700,-1990,418,2024-01-24 15:32:19,0.0
3016,-82,-1674,837,-2188,422,2024-01-24 15:32:19,0.0
3013,-75,-2523,810,-2355,496,2024-01-24 15:32:19,0.0
2701,-482,-2885,712,-2724,537,2024-01-24 15:32:19,0.0
2212,-384,-3241,599,-2759,418,2024-01-24 15:32:19,0.0
2232,-644,-3712,511,-2437,338,2024-01-24 15:32:19,0.0
1573,-959,-3638,384,-2513,265,2024-01-24 15:32:20,0.0
884,-1354,-3738,347,-2346,-15,2024-01-24 15:32:20,0.0
793,-1128,-3865,524,-2029,-316,2024-01-24 15:32:20,0.0
80,-1560,-4159,330,-2256,-303,2024-01-24 15:32:20,0.0
-729,-1247,-4071,417,-1482,-454,2024-01-24 15:32:20,0.0
-717,-1387,-4150,204,-1651,-280,2024-01-24 15:32:20,0.0
-1050,-1855,-3935,139,-917,-232,2024-01-24 15:32:20,0.0
-1369,-1606,-4142,85,-525,-141,2024-01-24 15:32:20,0.0
-1229,-2943,-3977,-7,-593,93,2024-01-24 15:32:20,0.0
-2074,-1472,-4152,59,-280,24,2024-01-24 15:32:20,0.0
-2030,-2541,-3990,66,111,-19,2024-01-24 15:32:20,0.0
-1784,-2278,-3944,92,-7,35,2024-01-24 15:32:20,0.0
-1541,-1941,-3972,90,-91,-2,2024-01-24 15:32:20,0.0
-1846,-2299,-4118,-12,74,61,2024-01-24 15:32:20,0.0
-1669,-2246,-4530,-148,455,129,2024-01-24 15:32:20,0.0
-1700,-2147,-4029,-206,458,163,2024-01-24 15:32:20,0.0
-1203,-1962,-4204,-210,557,150,2024-01-24 15:32:20,0.0
-932,-1835,-4414,-332,963,332,2024-01-24 15:32:20,0.0
-837,-1618,-3746,-412,1593,186,2024-01-24 15:32:21,0.0
93,-1391,-3927,-418,1891,108,2024-01-24 15:32:21,0.0
463,-1438,-3864,-450,2579,-52,2024-01-24 15:32:21,
