acceleration_x,acceleration_y,acceleration_z,gyroscope_x,gyroscope_y,gyroscope_z,timestamp,label
4179,-561,1151,-40,-31,-7,2024-01-24 14:41:18,0.0
4158,-571,1139,-47,-26,-2,2024-01-24 14:41:18,0.0
4194,-546,1099,-34,-31,-3,2024-01-24 14:41:18,0.0
4185,-559,1071,-35,-40,0,2024-01-24 14:41:18,0.0
4152,-546,1096,-39,-41,7,2024-01-24 14:41:18,0.0
4120,-559,1123,-36,-56,0,2024-01-24 14:41:19,0.0
4185,-566,1093,-60,-92,-10,2024-01-24 14:41:19,0.0
4029,-576,1108,-114,-336,-33,2024-01-24 14:41:19,0.0
4059,-514,1123,-98,-523,26,2024-01-24 14:41:19,0.0
4128,-456,982,-172,-719,25,2024-01-24 14:41:19,0.0
4195,-532,1020,-258,-654,-19,2024-01-24 14:41:19,0.0
4732,-611,1009,-155,-143,0,2024-01-24 14:41:19,0.0
4492,-460,780,-119,-300,131,2024-01-24 14:41:19,0.0
4420,-762,577,-67,-564,104,2024-01-24 14:41:19,0.0
4930,-689,244,-93,-1349,15,2024-01-24 14:41:19,0.0
4962,-865,-159,36,-950,133,2024-01-24 14:41:19,0.0
5119,-736,-546,77,-779,79,2024-01-24 14:41:19,0.0
4849,-773,-848,-6,-838,90,2024-01-24 14:41:19,0.0
5065,-996,-938,40,-533,14,2024-01-24 14:41:19,0.0
4422,-726,-916,49,-482,-1,2024-01-24 14:41:19,0.0
4222,-761,-903,36,-343,-56,2024-01-24 14:41:19,0.0
4310,-585,-864,128,-199,-26,2024-01-24 14:41:19,0.0
3950,-744,-706,15,228,-128,2024-01-24 14:41:20,0.0
3915,-646,-648,113,297,-43,2024-01-24 14:41:20,0.0
3937,-408,-839,-59,317,-149,2024-01-24 14:41:20,0.0
3871,-600,-475,-82,491,-89,2024-01-24 14:41:20,0.0
3814,-499,-514,-30,431,-144,2024-01-24 14:41:20,0.0
3759,-227,-489,-143,456,-137,2024-01-24 14:41:20,0.0
3671,-362,-548,-156,417,-39,2024-01-24 14:41:20,0.0
3895,-571,-500,-113,326,40,2024-01-24 14:41:20,0.0
4358,-419,-557,-162,467,-79,2024-01-24 14:41:20,0.0
3853,-776,-301,-45,442,10,2024-01-24 14:41:20,0.0
4177,-522,-188,52,292,-40,2024-01-24 14:41:20,0.0
4305,-411,-228,59,296,-12,2024-01-24 14:41:20,0.0
4167,-338,76,30,170,-9,2024-01-24 14:41:20,0.0
4455,-446,61,-31,248,7,2024-01-24 14:41:20,0.0
4188,-530,277,64,133,38,2024-01-24 14:41:20,0.0
4203,-475,522,8,111,7,2024-01-24 14:41:20,0.0
4202,-471,327,97,2,-29,2024-01-24 14:41:20,0.0
4352,-290,359,18,-21,49,2024-01-24 14:41:20,0.0
4330,-539,379,-16,47,-35,2024-01-24 14:41:21,0.0
4276,-282,455,-58,0,-35,2024-01-24 14:41:21,0.0
4295,-285,511,-78,-49,-50,2024-01-24 14:41:21,0.0
4380,-327,350,-65,-69,-32,2024-01-24 14:41:21,0.0
4335,-389,393,-24,-55,-8,2024-01-24 14:41:21,0.0
4122,-548,170,24,-66,-8,2024-01-24 14:41:21,0.0
4066,-548,82,93,-377,48,2024-01-24 14:41:21,0.0
3745,-684,-472,44,-478,114,2024-01-24 14:41:21,0.0
3136,-458,-612,-8,-675,116,2024-01-24 14:41:21,0.0
2663,-394,-183,-135,-903,201,2024-01-24 14:41:21,0.0
2944,-517,-337,-83,-1159,213,2024-01-24 14:41:21,0.0
4457,-353,-953,-315,-1313,359,2024-01-24 14:41:21,0.0
4100,-762,-703,-132,-756,189,2024-01-24 14:41:21,0.0
5560,-779,-1126,-274,-619,122,2024-01-24 14:41:21,0.0
4183,-954,-827,-245,-271,188,2024-01-24 14:41:21,0.0
4191,-750,-1401,-54,-178,110,2024-01-24 14:41:21,0.0
5103,-1033,-1497,-139,181,-82,2024-01-24 14:41:21,0.0
4013,-289,-1030,-52,-68,-33,2024-01-24 14:41:22,0.0
5001,-1366,-1167,74,351,-45,2024-01-24 14:41:22,0.0
4390,33,-1160,53,283,-323,2024-01-24 14:41:22,0.0
4853,-1055,-1223,178,443,-155,2024-01-24 14:41:22,0.0
4428,-416,-834,163,793,-279,2024-01-24 14:41:22,0.0
4978,-565,-1247,98,821,-187,2024-01-24 14:41:22,0.0
4594,-924,-163,176,1065,-10,2024-01-24 14:41:22,0.0
5760,-495,-546,62,1513,-141,2024-01-24 14:41:22,0.0
2594,-413,1121,65,781,1,2024-01-24 14:41:22,0.0
4664,-266,738,54,924,-160,2024-01-24 14:41:22,0.0
4172,-385,1258,47,614,-100,2024-01-24 14:41:22,0.0
4276,-127,952,-31,703,-134,2024-01-24 14:41:22,0.0
3673,-170,1639,-80,440,-107,2024-01-24 14:41:22,0.0
4228,-436,1369,-113,391,-18,2024-01-24 14:41:22,0.0
4214,-142,1677,-27,92,-63,2024-01-24 14:41:22,0.0
3891,-162,1478,-83,92,67,2024-01-24 14:41:22,0.0
4146,-360,1479,-61,10,6,2024-01-24 14:41:22,0.0
4085,-293,1374,-25,29,67,2024-01-24 14:41:22,0.0
4148,-333,1239,-64,-41,50,2024-01-24 14:41:23,0.0
4071,-393,1281,-16,-55,60,2024-01-24 14:41:23,0.0
4100,-338,1371,0,6,51,2024-01-24 14:41:23,0.0
4094,-360,1404,-26,-92,73,2024-01-24 14:41:23,0.0
4153,-339,1321,-25,-64,41,2024-01-24 14:41:23,0.0
4100,-369,1362,-35,-37,47,2024-01-24 14:41:23,0.0
4139,-381,1302,-45,-64,46,2024-01-24 14:41:23,0.0
4109,-352,1305,-48,-83,40,2024-01-24 14:41:23,0.0
4148,-417,1288,-80,-67,15,2024-01-24 14:41:23,0.0
4167,-383,1270,-42,-48,38,2024-01-24 14:41:23,0.0
4120,-432,1370,-49,-26,7,2024-01-24 14:41:23,0.0
4158,-370,1285,-51,-82,27,2024-01-24 14:41:23,0.0
4157,-428,1327,-54,-29,17,2024-01-24 14:41:23,0.0
4146,-387,1246,-66,-77,26,2024-01-24 14:41:23,0.0
4174,-449,1296,-53,-2,0,2024-01-24 14:41:23,0.0
4065,-377,1307,-27,-34,44,2024-01-24 14:41:23,0.0
4117,-433,1316,-64,-49,32,2024-01-24 14:41:23,0.0
4185,-545,1250,-23,-37,3,2024-01-24 14:41:24,0.0
4076,-309,1245,-1,-61,17,2024-01-24 14:41:24,0.0
4193,-406,1275,-22,-89,19,2024-01-24 14:41:24,0.0
4161,-428,1271,-35,-45,15,2024-01-24 14:41:24,0.0
4134,-532,1297,-1,-45,19,2024-01-24 14:41:24,0.0
4124,-384,1213,-28,-44,13,2024-01-24 14:41:24,0.0
4153,-443,1186,-31,-27,-11,2024-01-24 14:41:24,0.0
4187,-435,1300,-45,-47,-23,2024-01-24 14:41:24,
4131,-381,1282,-51,-136,2,2024-01-24 14:41:24,0.0
4143,-405,1185,-44,-108,-2,2024-01-24 14:41:24,0.0
4224,-389,1199,-52,-125,-11,2024-01-24 14:41:24,0.0
4098,-454,1182,-47,-87,0,2024-01-24 14:41:24,0.0
4210,-416,1183,-61,-138,23,2024-01-24 14:41:24,0.0
4187,-360,1103,-41,-75,-8,2024-01-24 14:41:24,0.0
4177,-413,1081,-58,-108,13,2024-01-24 14:41:24,0.0
4151,-378,1097,-35,-221,8,2024-01-24 14:41:24,0.0
4254,-370,1066,-59,-186,28,2024-01-24 14:41:24,0.0
4193,-444,1087,-51,-125,21,2024-01-24 14:41:24,0.0
4257,-403,1020,-39,-58,21,2024-01-24 14:41:25,0.0
4205,-421,994,-48,-25,21,2024-01-24 14:41:25,0.0
4219,-450,924,-36,-131,26,2024-01-24 14:41:25,0.0
4234,-426,888,-52,-122,23,2024-01-24 14:41:25,0.0
4216,-400,903,-45,-106,32,2024-01-24 14:41:25,0.0
4149,-397,944,-75,-146,19,2024-01-24 14:41:25,0.0
4187,-452,918,-89,-210,14,2024-01-24 14:41:25,0.0
3935,-420,979,-124,-603,24,2024-01-24 14:41:25,0.0
4003,-399,782,-113,-752,99,2024-01-24 14:41:25,0.0
4115,-288,680,-155,-802,77,2024-01-24 14:41:25,0.0
3990,-506,697,-177,-1118,77,2024-01-24 14:41:25,0.0
5087,-706,279,-179,-1268,80,2024-01-24 14:41:25,0.0
4925,-180,116,-127,-1296,137,2024-01-24 14:41:25,0.0
5600,-1044,-1198,-111,-1118,110,2024-01-24 14:41:25,0.0
5751,-612,-1511,62,-788,104,2024-01-24 14:41:25,0.0
5390,-838,-1766,72,-417,66,2024-01-24 14:41:25,0.0
5154,-665,-1681,46,-233,18,2024-01-24 14:41:25,0.0
4635,-721,-1289,90,32,-32,2024-01-24 14:41:26,0.0
3949,-544,-1012,91,-124,-62,2024-01-24 14:41:26,0.0
3693,-405,-705,53,448,-156,2024-01-24 14:41:26,0.0
3321,-510,-696,71,459,-92,2024-01-24 14:41:26,0.0
3562,-473,-838,35,661,-168,2024-01-24 14:41:26,0.0
3282,-458,-606,55,767,-225,2024-01-24 14:41:26,0.0
3373,-186,-734,-73,530,-283,2024-01-24 14:41:26,0.0
4012,-630,-525,-23,546,-145,2024-01-24 14:41:26,0.0
3729,-146,-280,64,536,-42,2024-01-24 14:41:26,0.0
4106,-428,-428,-45,349,31,2024-01-24 14:41:26,0.0
3861,-465,-327,-58,350,51,2024-01-24 14:41:26,0.0
4260,-436,-188,-117,206,24,2024-01-24 14:41:26,0.0
4322,-489,-147,-39,192,66,2024-01-24 14:41:26,0.0
4318,-527,-62,9,19,32,2024-01-24 14:41:26,0.0
4140,-402,22,54,57,26,2024-01-24 14:41:26,0.0
4444,-312,112,29,0,42,2024-01-24 14:41:26,0.0
4082,-407,-2,-17,-60,36,2024-01-24 14:41:26,0.0
4336,-231,-76,-163,-184,42,2024-01-24 14:41:27,0.0
4047,-554,-155,-167,-184,57,2024-01-24 14:41:27,0.0
4215,-274,-121,-222,-251,26,2024-01-24 14:41:27,0.0
3886,-731,-119,-146,-370,108,2024-01-24 14:41:27,0.0
4060,-570,-231,-65,-327,67,2024-01-24 14:41:27,0.0
3817,-292,-275,-163,-751,134,2024-01-24 14:41:27,0.0
3800,-964,-382,-36,-647,181,2024-01-24 14:41:27,0.0
3605,-340,-592,-141,-699,112,2024-01-24 14:41:27,0.0
3765,-303,-540,-243,-824,157,2024-01-24 14:41:27,0.0
4343,-879,-1137,-169,-742,213,2024-01-24 14:41:27,0.0
3924,-487,-672,-96,-540,76,2024-01-24 14:41:27,0.0
4139,-679,-1165,-92,-551,79,2024-01-24 14:41:27,0.0
4252,-494,-1154,-73,-350,-4,2024-01-24 14:41:27,0.0
4661,-871,-1518,-43,-199,18,2024-01-24 14:41:27,0.0
4008,-337,-1125,32,-42,-5,2024-01-24 14:41:27,0.0
4361,-790,-1286,-199,201,-158,2024-01-24 14:41:27,0.0
3822,-467,-1225,-55,-445,-227,2024-01-24 14:41:27,0.0
4590,-646,-1620,152,310,-128,2024-01-24 14:41:27,0.0
4669,-500,-1648,54,175,-273,2024-01-24 14:41:28,0.0
4180,-363,-1515,143,336,-197,2024-01-24 14:41:28,0.0
4759,-589,-1515,50,165,-111,2024-01-24 14:41:28,0.0
4652,-279,-1567,61,705,-133,2024-01-24 14:41:28,0.0
4460,-529,-1098,-58,596,-106,2024-01-24 14:41:28,0.0
4793,-522,-991,-31,920,-119,2024-01-24 14:41:28,0.0
3870,-237,50,-46,852,-108,2024-01-24 14:41:28,0.0
4851,-410,-340,-11,755,-9,2024-01-24 14:41:28,0.0
4389,-168,33,12,845,-25,2024-01-24 14:41:28,0.0
4010,-121,692,-63,736,-13,2024-01-24 14:41:28,0.0
4418,-279,525,-40,399,21,2024-01-24 14:41:28,0.0
4388,-372,594,-18,608,-35,2024-01-24 14:41:28,0.0
4374,-109,575,-50,372,41,2024-01-24 14:41:28,0.0
4039,-285,953,-100,238,57,2024-01-24 14:41:28,0.0
4389,-396,729,-27,163,15,2024-01-24 14:41:28,0.0
4134,-140,812,-53,245,50,2024-01-24 14:41:28,0.0
4120,-575,994,-34,-39,54,2024-01-24 14:41:28,0.0
4425,-310,896,-18,33,68,2024-01-24 14:41:28,0.0
4207,-407,920,13,44,69,2024-01-24 14:41:29,0.0
4198,-313,946,-39,-11,36,2024-01-24 14:41:29,0.0
4271,-366,874,-32,-71,49,2024-01-24 14:41:29,0.0
4191,-322,966,-51,-154,20,2024-01-24 14:41:29,0.0
4266,-312,958,-88,5,31,2024-01-24 14:41:29,0.0
4109,-371,768,-118,-269,49,2024-01-24 14:41:29,0.0
4152,-315,709,-91,-317,30,2024-01-24 14:41:29,0.0
4287,-433,573,-125,-394,20,2024-01-24 14:41:29,0.0
4144,-453,662,-72,-448,55,2024-01-24 14:41:29,0.0
4175,-386,606,-160,-573,37,2024-01-24 14:41:29,0.0
4318,-481,282,-123,-611,68,2024-01-24 14:41:29,0.0
3993,-340,313,-183,-643,73,2024-01-24 14:41:29,0.0
4152,-516,513,-123,-1020,79,2024-01-24 14:41:29,0.0
4551,-433,-136,-115,-1435,65,2024-01-24 14:41:29,0.0
4826,-668,-448,-48,-1017,113,2024-01-24 14:41:29,0.0
5003,-415,-484,16,-1718,153,2024-01-24 14:41:29,0.0
5899,-794,-1824,-50,-1135,86,2024-01-24 14:41:29,0.0
5604,-843,-2311,181,-194,127,2024-01-24 14:41:30,0.0
5030,-604,-1887,146,144,99,2024-01-24 14:41:30,0.0
5083,-840,-1960,135,-62,56,2024-01-24 14:41:30,
4141,-652,-1368,107,476,-114,2024-01-24 14:41:30,0.0
3700,-477,-810,-7,281,-101,2024-01-24 14:41:30,0.0
3634,-436,-990,-95,556,-106,2024-01-24 14:41:30,0.0
3170,-386,-786,-193,647,-143,2024-01-24 14:41:30,0.0
3345,-460,-829,-167,596,-67,2024-01-24 14:41:30,0.0
3468,-514,-881,-177,708,-153,2024-01-24 14:41:30,0.0
3393,-489,-630,-128,671,-86,2024-01-24 14:41:30,0.0
3475,-515,-546,-37,563,-82,2024-01-24 14:41:30,0.0
3462,-383,-916,1,349,-23,2024-01-24 14:41:30,0.0
4492,-631,-585,10,417,34,2024-01-24 14:41:30,0.0
4374,-358,-547,-21,135,-68,2024-01-24 14:41:30,0.0
4018,-439,-309,-27,219,22,2024-01-24 14:41:30,0.0
4443,-298,-183,-94,27,-44,2024-01-24 14:41:30,0.0
4215,-695,-66,-6,248,54,2024-01-24 14:41:30,0.0
4555,-454,-69,62,35,-11,2024-01-24 14:41:30,0.0
4136,-433,-28,25,155,57,2024-01-24 14:41:31,0.0
4488,-507,95,53,86,40,2024-01-24 14:41:31,0.0
4268,-444,35,14,127,34,2024-01-24 14:41:31,0.0
4230,-373,97,-16,-46,32,2024-01-24 14:41:31,0.0
4390,-340,89,-71,-17,41,2024-01-24 14:41:31,0.0
4306,-750,138,125,22,57,2024-01-24 14:41:31,0.0
4278,-265,111,128,-36,38,2024-01-24 14:41:31,0.0
4389,-469,190,54,6,22,2024-01-24 14:41:31,0.0
4406,-449,196,19,12,24,2024-01-24 14:41:31,0.0
4307,-617,330,89,177,11,2024-01-24 14:41:31,0.0
4281,-383,445,-32,-7,-1,2024-01-24 14:41:31,0.0
4264,-483,434,-4,92,36,2024-01-24 14:41:31,0.0
4279,-472,321,-15,-41,24,2024-01-24 14:41:31,0.0
4373,-436,385,-25,-2,0,2024-01-24 14:41:31,0.0
4338,-382,268,-86,-46,2,2024-01-24 14:41:31,0.0
4326,-512,292,-104,-47,0,2024-01-24 14:41:31,0.0
4380,-472,139,-88,-69,-5,2024-01-24 14:41:31,0.0
4091,-407,43,-170,-287,40,2024-01-24 14:41:32,0.0
3997,-541,-306,-199,-389,24,2024-01-24 14:41:32,0.0
4234,-531,-343,-178,-595,82,2024-01-24 14:41:32,0.0
3476,-523,-703,-190,-881,101,2024-01-24 14:41:32,0.0
3622,-645,-809,-132,-1062,132,2024-01-24 14:41:32,0.0
3176,-191,-561,-254,-1305,132,2024-01-24 14:41:32,0.0
3414,-578,-1079,-303,-1148,159,2024-01-24 14:41:32,0.0
4379,-619,-1187,-284,-1111,93,2024-01-24 14:41:32,0.0
3572,-390,-739,-252,-425,176,2024-01-24 14:41:32,0.0
4507,-610,-1254,-194,-365,123,2024-01-24 14:41:32,0.0
3991,-700,-1285,-415,-479,65,2024-01-24 14:41:32,0.0
4411,-1082,-1848,6,-132,54,2024-01-24 14:41:32,0.0
4980,-292,-2060,-83,24,-126,2024-01-24 14:41:32,0.0
4211,-975,-1746,114,522,28,2024-01-24 14:41:32,0.0
4140,-159,-1464,-93,-266,21,2024-01-24 14:41:32,0.0
4205,-902,-1592,4,279,40,2024-01-24 14:41:32,0.0
4303,-505,-1776,25,199,-154,2024-01-24 14:41:32,0.0
4338,-668,-1578,97,438,-243,2024-01-24 14:41:33,0.0
4204,-399,-1478,153,855,-348,2024-01-24 14:41:33,0.0
4279,-427,-1124,198,762,-246,2024-01-24 14:41:33,0.0
5182,-412,-1629,60,982,-153,2024-01-24 14:41:33,0.0
4917,-712,-783,107,1285,11,2024-01-24 14:41:33,0.0
4350,-448,496,138,1213,-128,2024-01-24 14:41:33,0.0
4751,-320,-106,81,1231,-106,2024-01-24 14:41:33,0.0
3924,-179,1144,-64,821,-53,2024-01-24 14:41:33,0.0
4083,-289,1125,-80,535,-10,2024-01-24 14:41:33,0.0
4172,-268,1092,-7,521,-54,2024-01-24 14:41:33,0.0
4177,128,1196,-54,-63,-5,2024-01-24 14:41:33,0.0
4246,-231,887,-102,410,-24,2024-01-24 14:41:33,0.0
4104,-387,1187,-45,219,-23,2024-01-24 14:41:33,0.0
4117,-290,1252,-5,238,24,2024-01-24 14:41:33,0.0
4166,-350,1078,-40,-8,61,2024-01-24 14:41:33,0.0
4031,-216,1226,12,-72,70,2024-01-24 14:41:33,0.0
4300,-201,942,-68,-97,54,2024-01-24 14:41:33,0.0
4235,-397,1007,-79,14,20,2024-01-24 14:41:33,0.0
4152,-366,1053,-53,-73,44,2024-01-24 14:41:34,0.0
4289,-335,943,-41,-79,34,2024-01-24 14:41:34,0.0
4187,-344,1010,-66,-56,20,2024-01-24 14:41:34,0.0
4226,-334,1000,-38,-40,16,2024-01-24 14:41:34,0.0
4270,-361,958,-42,-68,29,2024-01-24 14:41:34,0.0
4260,-342,997,-38,-56,16,2024-01-24 14:41:34,0.0
4151,-346,1058,-41,-41,21,2024-01-24 14:41:34,0.0
4278,-365,1034,-33,-49,14,2024-01-24 14:41:34,0.0
4212,-346,1037,-29,-55,18,2024-01-24 14:41:34,0.0
4257,-348,976,-44,-32,22,2024-01-24 14:41:34,0.0
4186,-345,1017,-51,-5,17,2024-01-24 14:41:34,0.0
4212,-361,1002,-47,-50,16,2024-01-24 14:41:34,0.0
4190,-379,1024,-48,-48,8,2024-01-24 14:41:34,0.0
4189,-361,976,-40,-65,16,2024-01-24 14:41:34,0.0
4253,-362,941,-46,-81,8,2024-01-24 14:41:34,0.0
4238,-337,948,-44,-71,14,2024-01-24 14:41:34,0.0
4196,-386,944,-46,-48,12,2024-01-24 14:41:34,0.0
4211,-350,998,-38,-105,5,2024-01-24 14:41:34,0.0
4167,-386,1013,-13,-103,13,2024-01-24 14:41:35,0.0
4161,-307,1029,-21,-148,2,2024-01-24 14:41:35,0.0
4276,-326,965,-72,-123,-7,2024-01-24 14:41:35,0.0
4172,-356,850,-81,-147,15,2024-01-24 14:41:35,0.0
4301,-360,705,-90,-182,36,2024-01-24 14:41:35,0.0
4287,-357,644,-83,-247,-7,2024-01-24 14:41:35,0.0
4121,-365,671,-61,-346,9,2024-01-24 14:41:35,0.0
4195,-294,590,-77,-478,-7,2024-01-24 14:41:35,0.0
4094,-367,612,-92,-586,25,2024-01-24 14:41:35,0.0
4021,-420,472,-124,-895,38,2024-01-24 14:41:35,0.0
4225,-282,208,-134,-1308,104,2024-01-24 14:41:35,0.0
4724,-689,667,-51,-641,12,2024-01-24 14:41:35,0.0
4435,76,177,-27,-1031,86,2024-01-24 14:41:35,0.0
4779,-418,-724,-50,-1274,174,2024-01-24 14:41:35,0.0
5087,-746,-1092,-49,-1381,161,2024-01-24 14:41:35,
5046,-497,-1741,103,-1253,138,2024-01-24 14:41:35,0.0
5619,-829,-2664,17,-640,194,2024-01-24 14:41:35,0.0
4756,-551,-2123,27,197,54,2024-01-24 14:41:36,0.0
4274,-696,-1745,15,-23,52,2024-01-24 14:41:36,0.0
3992,-704,-1530,-1,68,-15,2024-01-24 14:41:36,0.0
3790,-611,-1454,46,253,-66,2024-01-24 14:41:36,0.0
3297,-206,-1039,-32,288,-74,2024-01-24 14:41:36,0.0
3985,-686,-1405,-47,418,7,2024-01-24 14:41:36,0.0
3948,-593,-1173,8,588,-134,2024-01-24 14:41:36,0.0
3844,-410,-1052,1,659,-100,2024-01-24 14:41:36,0.0
3744,-405,-1031,-40,626,-100,2024-01-24 14:41:36,0.0
3735,-523,-772,-114,568,-150,2024-01-24 14:41:36,0.0
3828,-402,-655,-1,590,-35,2024-01-24 14:41:36,0.0
3893,-419,-634,-50,475,-98,2024-01-24 14:41:36,0.0
3813,-361,-425,-28,522,-69,2024-01-24 14:41:36,0.0
3702,-347,-444,-7,331,-12,2024-01-24 14:41:36,0.0
4288,-331,-391,-52,271,16,2024-01-24 14:41:36,0.0
4272,-456,-377,-75,282,14,2024-01-24 14:41:36,0.0
4285,-544,-76,69,259,47,2024-01-24 14:41:36,0.0
4452,-237,59,26,280,-11,2024-01-24 14:41:37,0.0
4226,-393,187,-28,157,37,2024-01-24 14:41:37,0.0
4244,-451,61,-16,187,33,2024-01-24 14:41:37,0.0
4385,-481,223,28,174,30,2024-01-24 14:41:37,0.0
4159,-356,275,-14,109,25,2024-01-24 14:41:37,0.0
4300,-489,219,-45,-68,37,2024-01-24 14:41:37,0.0
4342,-520,181,-5,-75,48,2024-01-24 14:41:37,0.0
4391,-448,363,-31,20,0,2024-01-24 14:41:37,0.0
4242,-475,328,-48,-63,12,2024-01-24 14:41:37,0.0
4396,-465,321,-67,-155,25,2024-01-24 14:41:37,0.0
4309,-531,259,-74,-116,18,2024-01-24 14:41:37,0.0
4177,-472,132,-53,-171,16,2024-01-24 14:41:37,0.0
4253,-481,-3,-41,-288,8,2024-01-24 14:41:37,0.0
4146,-417,-117,-89,-338,22,2024-01-24 14:41:37,0.0
3985,-437,-213,-178,-614,45,2024-01-24 14:41:37,0.0
3610,-524,-605,-157,-592,60,2024-01-24 14:41:37,0.0
3510,-387,-582,-163,-894,107,2024-01-24 14:41:37,0.0
3189,-748,-314,-96,-1019,184,2024-01-24 14:41:37,0.0
3638,-149,-1008,30,-819,123,2024-01-24 14:41:38,0.0
3767,-611,-608,-179,-643,197,2024-01-24 14:41:38,0.0
4028,-502,-1059,-114,-508,34,2024-01-24 14:41:38,0.0
4662,-744,-1175,-210,-393,191,2024-01-24 14:41:38,0.0
4126,-584,-1189,-232,-113,-102,2024-01-24 14:41:38,0.0
4009,-336,-1324,-220,-171,-2,2024-01-24 14:41:38,0.0
5140,-957,-1664,-249,-39,-25,2024-01-24 14:41:38,0.0
4110,-750,-1534,8,2,-16,2024-01-24 14:41:38,0.0
4222,-567,-1456,-37,-292,-122,2024-01-24 14:41:38,0.0
4697,-739,-1598,-21,190,-175,2024-01-24 14:41:38,0.0
4626,-386,-1345,150,407,-352,2024-01-24 14:41:38,0.0
4887,-543,-1437,101,894,-264,2024-01-24 14:41:38,0.0
5198,-328,-1605,80,1214,-286,2024-01-24 14:41:38,0.0
4655,-201,-543,1,1617,-129,2024-01-24 14:41:38,0.0
4561,-328,374,138,1106,9,2024-01-24 14:41:38,0.0
4055,110,269,33,819,-171,2024-01-24 14:41:38,0.0
4176,182,904,-46,959,-55,2024-01-24 14:41:38,0.0
4126,-106,1330,-106,709,-82,2024-01-24 14:41:39,0.0
4237,-215,1079,-111,458,-24,2024-01-24 14:41:39,0.0
3978,-242,1205,-96,277,42,2024-01-24 14:41:39,0.0
4214,-234,1022,-131,161,24,2024-01-24 14:41:39,0.0
4241,-232,882,-55,61,51,2024-01-24 14:41:39,0.0
4074,-273,882,-56,79,28,2024-01-24 14:41:39,0.0
4309,-212,954,-18,70,48,2024-01-24 14:41:39,0.0
4221,-245,1031,-29,67,28,2024-01-24 14:41:39,0.0
4182,-173,1001,-10,41,31,2024-01-24 14:41:39,0.0
4173,-123,1144,-63,-85,-1,2024-01-24 14:41:39,0.0
4238,-226,1001,-81,-35,28,2024-01-24 14:41:39,0.0
4171,-261,1047,-46,-61,36,2024-01-24 14:41:39,0.0
4317,-261,1004,-64,7,28,2024-01-24 14:41:39,0.0
4170,-242,1052,-34,-38,27,2024-01-24 14:41:39,0.0
4223,-278,1022,-57,-12,14,2024-01-24 14:41:39,0.0
4217,-265,1058,-13,-27,31,2024-01-24 14:41:39,0.0
4160,-239,1053,-21,-86,27,2024-01-24 14:41:39,0.0
4261,-255,1060,3,-179,25,2024-01-24 14:41:39,0.0
4222,-242,918,-40,-72,7,2024-01-24 14:41:40,0.0
4231,-278,1026,-44,-61,17,2024-01-24 14:41:40,0.0
4195,-197,963,-40,-54,18,2024-01-24 14:41:40,0.0
4220,-274,938,-44,-92,16,2024-01-24 14:41:40,0.0
4220,-255,963,-40,-112,12,2024-01-24 14:41:40,0.0
4249,-304,934,-61,-80,14,2024-01-24 14:41:40,0.0
4244,-274,986,-46,-59,15,2024-01-24 14:41:40,0.0
4225,-262,921,-42,-72,13,2024-01-24 14:41:40,0.0
4239,-266,922,-46,-68,8,2024-01-24 14:41:40,0.0
4215,-296,852,-41,-128,18,2024-01-24 14:41:40,0.0
4311,-238,917,-32,-85,-11,2024-01-24 14:41:40,0.0
4293,-286,840,-59,-88,0,2024-01-24 14:41:40,0.0
4259,-241,882,-47,-53,0,2024-01-24 14:41:40,0.0
4143,-244,1022,-29,-112,20,2024-01-24 14:41:40,0.0
4403,-428,495,-62,-55,9,2024-01-24 14:41:40,0.0
4014,-288,850,-71,-317,-12,2024-01-24 14:41:40,0.0
4100,-135,1024,-75,-428,63,2024-01-24 14:41:40,0.0
4241,-199,516,-103,-732,75,2024-01-24 14:41:41,0.0
4148,-204,683,-68,-597,68,2024-01-24 14:41:41,0.0
3944,-368,363,-37,-1179,128,2024-01-24 14:41:41,0.0
4549,-269,185,-64,-1099,84,2024-01-24 14:41:41,0.0
4879,-174,304,-5,-1351,262,2024-01-24 14:41:41,0.0
4953,-428,-696,-160,-1399,134,2024-01-24 14:41:41,0.0
5090,-555,-945,-74,-1481,218,2024-01-24 14:41:41,0.0
5240,-728,-2112,31,-1070,150,2024-01-24 14:41:41,0.0
5520,-546,-2335,-51,-356,174,2024-01-24 14:41:41,0.0
4834,-850,-2042,-22,25,84,2024-01-24 14:41:41,0.0
4612,-657,-1729,26,3,-46,2024-01-24 14:41:41,
4228,-573,-1622,136,423,18,2024-01-24 14:41:41,0.0
3802,-522,-1162,-7,150,-88,2024-01-24 14:41:41,0.0
3662,-485,-996,6,616,-103,2024-01-24 14:41:41,0.0
3527,-541,-994,-67,448,-126,2024-01-24 14:41:41,0.0
3529,-414,-955,-28,669,-135,2024-01-24 14:41:41,0.0
3458,-569,-880,-20,652,-136,2024-01-24 14:41:41,0.0
3301,-184,-750,-27,510,-154,2024-01-24 14:41:41,0.0
3981,-527,-828,-74,568,-75,2024-01-24 14:41:42,0.0
3870,-163,-687,-18,534,-68,2024-01-24 14:41:42,0.0
4009,-439,-501,-167,526,-81,2024-01-24 14:41:42,0.0
3862,-221,-378,-166,379,19,2024-01-24 14:41:42,0.0
4137,-524,-573,-193,270,36,2024-01-24 14:41:42,0.0
4336,-570,-262,-41,348,47,2024-01-24 14:41:42,0.0
4409,-308,-146,-11,113,27,2024-01-24 14:41:42,0.0
4131,-228,-203,-99,190,31,2024-01-24 14:41:42,0.0
4352,-348,21,-156,152,-15,2024-01-24 14:41:42,0.0
4263,-332,48,-112,115,32,2024-01-24 14:41:42,0.0
4275,-530,174,-93,-42,-13,2024-01-24 14:41:42,0.0
4312,-164,33,-172,-119,-9,2024-01-24 14:41:42,0.0
4427,-594,25,-136,-109,21,2024-01-24 14:41:42,0.0
4311,-368,137,-41,-19,2,2024-01-24 14:41:42,0.0
4321,-422,168,-19,-19,39,2024-01-24 14:41:42,0.0
4442,-311,154,-58,27,-5,2024-01-24 14:41:42,0.0
4288,-456,140,-28,68,4,2024-01-24 14:41:42,0.0
4280,-345,230,-28,-63,-4,2024-01-24 14:41:43,0.0
4320,-415,159,-1,-98,27,2024-01-24 14:41:43,0.0
4366,-344,206,-17,-109,23,2024-01-24 14:41:43,0.0
4412,-425,140,9,-18,35,2024-01-24 14:41:43,0.0
4427,-387,132,32,69,9,2024-01-24 14:41:43,0.0
4255,-354,104,43,120,-6,2024-01-24 14:41:43,0.0
4252,-301,239,-16,-85,18,2024-01-24 14:41:43,0.0
4235,-415,13,-35,-169,33,2024-01-24 14:41:43,0.0
4185,-339,-126,-20,-277,32,2024-01-24 14:41:43,0.0
4372,-404,-342,-41,-302,47,2024-01-24 14:41:43,0.0
3923,-595,-479,11,-480,41,2024-01-24 14:41:43,0.0
4101,-298,-477,37,-610,59,2024-01-24 14:41:43,0.0
3314,-508,-724,-148,-869,87,2024-01-24 14:41:43,0.0
3305,-246,-810,-153,-1059,92,2024-01-24 14:41:43,0.0
3671,-457,-948,-178,-1181,305,2024-01-24 14:41:43,0.0
3347,-619,-1024,2,-1106,154,2024-01-24 14:41:43,0.0
4404,-437,-1373,-94,-985,194,2024-01-24 14:41:43,0.0
4039,-647,-1177,-65,-765,33,2024-01-24 14:41:43,0.0
4078,-297,-1695,4,-293,-1,2024-01-24 14:41:44,0.0
4402,-845,-1329,-116,-219,39,2024-01-24 14:41:44,0.0
4192,-640,-1880,-92,-452,2,2024-01-24 14:41:44,0.0
4488,-215,-1994,75,553,-94,2024-01-24 14:41:44,0.0
3631,-463,-1529,-178,43,37,2024-01-24 14:41:44,0.0
4558,-874,-1869,-160,242,-197,2024-01-24 14:41:44,0.0
4416,-572,-1793,-67,289,-196,2024-01-24 14:41:44,0.0
4722,-719,-1959,61,601,-267,2024-01-24 14:41:44,0.0
4379,-336,-1619,59,851,-90,2024-01-24 14:41:44,0.0
4564,-409,-1491,16,817,9,2024-01-24 14:41:44,0.0
5114,-508,-1542,4,1167,-197,2024-01-24 14:41:44,0.0
4118,-179,-188,59,1687,-193,2024-01-24 14:41:44,0.0
5258,-493,-359,58,975,-198,2024-01-24 14:41:44,0.0
3793,-232,204,113,1164,-134,2024-01-24 14:41:44,0.0
3941,-109,799,24,671,-84,2024-01-24 14:41:44,0.0
4405,-42,806,0,263,-31,2024-01-24 14:41:44,0.0
4490,-66,639,11,364,-95,2024-01-24 14:41:44,0.0
3932,12,908,-7,114,-26,2024-01-24 14:41:45,0.0
4356,-190,780,-26,247,11,2024-01-24 14:41:45,0.0
4249,-108,885,45,277,27,2024-01-24 14:41:45,0.0
4211,2,876,-47,265,19,2024-01-24 14:41:45,0.0
4133,-253,892,-64,-70,61,2024-01-24 14:41:45,0.0
4183,-139,873,-95,-98,78,2024-01-24 14:41:45,0.0
4114,-121,735,-167,-383,73,2024-01-24 14:41:45,0.0
4326,-238,986,-153,-292,58,2024-01-24 14:41:45,0.0
4145,-240,788,-118,-333,61,2024-01-24 14:41:45,0.0
4157,-301,778,-61,-531,115,2024-01-24 14:41:45,0.0
4197,-198,547,-18,-741,161,2024-01-24 14:41:45,0.0
4177,-310,314,-72,-899,163,2024-01-24 14:41:45,0.0
4391,-296,258,-91,-1070,142,2024-01-24 14:41:45,0.0
5004,-64,26,-200,-591,71,2024-01-24 14:41:45,0.0
5582,-252,-216,-515,7,-188,2024-01-24 14:41:45,0.0
5029,-1066,-258,181,-1424,240,2024-01-24 14:41:45,0.0
5067,-555,-1307,38,-1180,-23,2024-01-24 14:41:45,0.0
3373,-138,-1221,-7,-447,129,2024-01-24 14:41:45,0.0
3756,-398,-1552,-14,-948,209,2024-01-24 14:41:46,0.0
3624,-413,-1462,-73,-741,159,2024-01-24 14:41:46,0.0
3650,-600,-1362,-8,-238,66,2024-01-24 14:41:46,0.0
3499,-234,-1301,10,-298,13,2024-01-24 14:41:46,0.0
3769,-464,-1563,-30,134,1,2024-01-24 14:41:46,0.0
3990,-610,-1479,-59,263,-23,2024-01-24 14:41:46,0.0
3992,-240,-1737,-208,424,-60,2024-01-24 14:41:46,0.0
3639,-569,-1727,-174,448,17,2024-01-24 14:41:46,0.0
3307,-475,-1343,-281,96,-112,2024-01-24 14:41:46,0.0
4071,-550,-1381,-31,-69,-41,2024-01-24 14:41:46,0.0
4383,-397,-1581,83,427,-106,2024-01-24 14:41:46,0.0
4413,-373,-1259,103,-12,-16,2024-01-24 14:41:46,0.0
5222,-428,-1451,30,685,27,2024-01-24 14:41:46,0.0
4447,-550,-513,3,889,-51,2024-01-24 14:41:46,0.0
4281,-408,-396,89,588,33,2024-01-24 14:41:46,0.0
4623,-477,-351,-26,626,-34,2024-01-24 14:41:46,0.0
4265,-430,-225,-34,695,-37,2024-01-24 14:41:46,0.0
4342,-373,50,35,403,13,2024-01-24 14:41:47,0.0
4339,-241,202,-28,671,-18,2024-01-24 14:41:47,0.0
4285,-285,260,-127,290,-35,2024-01-24 14:41:47,0.0
4290,-383,285,25,220,17,2024-01-24 14:41:47,0.0
4309,-281,265,-31,294,-93,2024-01-24 14:41:47,0.0
4185,-283,491,-58,135,30,2024-01-24 14:41:47,
4330,-474,406,-14,0,-4,2024-01-24 14:41:47,0.0
4236,-277,579,-41,35,45,2024-01-24 14:41:47,0.0
4258,-573,534,53,-70,40,2024-01-24 14:41:47,0.0
4359,-262,264,52,-132,25,2024-01-24 14:41:47,0.0
4213,-417,274,35,-267,85,2024-01-24 14:41:47,0.0
4510,-165,207,-37,-245,44,2024-01-24 14:41:47,0.0
4418,-376,304,-51,150,-7,2024-01-24 14:41:47,0.0
4203,-413,621,-95,-114,-40,2024-01-24 14:41:47,0.0
4335,-435,135,-49,-81,-18,2024-01-24 14:41:47,0.0
4241,-338,213,-83,-70,-26,2024-01-24 14:41:47,0.0
4389,-441,54,-97,-31,-43,2024-01-24 14:41:47,0.0
4238,-326,178,-6,15,-3,2024-01-24 14:41:48,0.0
4287,-318,199,-1,-70,-18,2024-01-24 14:41:48,0.0
4273,-324,181,28,-84,-26,2024-01-24 14:41:48,0.0
4263,-274,322,-29,-133,-15,2024-01-24 14:41:48,0.0
4329,-357,242,-50,-90,24,2024-01-24 14:41:48,0.0
4176,-407,241,-4,-317,8,2024-01-24 14:41:48,0.0
4288,-173,-4,-127,-524,13,2024-01-24 14:41:48,0.0
4339,-390,119,-135,-562,-4,2024-01-24 14:41:48,0.0
4886,-600,-133,-176,-138,-82,2024-01-24 14:41:48,0.0
3712,-174,236,54,-144,42,2024-01-24 14:41:48,0.0
4528,-159,368,-160,-1088,253,2024-01-24 14:41:48,0.0
4874,-214,-324,-89,-1121,259,2024-01-24 14:41:48,0.0
4787,-522,-859,-71,-1293,217,2024-01-24 14:41:48,0.0
5015,-579,-1541,-135,-1027,217,2024-01-24 14:41:48,0.0
4910,-817,-1831,-43,-752,241,2024-01-24 14:41:48,0.0
4694,-560,-1802,-127,-850,165,2024-01-24 14:41:48,0.0
4661,-737,-2216,-103,-494,155,2024-01-24 14:41:48,0.0
4406,-682,-1885,3,-277,58,2024-01-24 14:41:48,0.0
3676,-516,-1835,-130,167,-72,2024-01-24 14:41:49,0.0
3526,-465,-1371,33,7,42,2024-01-24 14:41:49,0.0
3881,-779,-1472,26,289,-108,2024-01-24 14:41:49,0.0
3865,-309,-1594,85,462,-124,2024-01-24 14:41:49,0.0
3413,-542,-1234,-24,419,-138,2024-01-24 14:41:49,0.0
3773,-467,-1441,-6,607,-101,2024-01-24 14:41:49,0.0
3668,-444,-1182,-16,721,-103,2024-01-24 14:41:49,0.0
3742,-644,-1119,125,714,-71,2024-01-24 14:41:49,0.0
3630,-353,-1154,-75,758,-128,2024-01-24 14:41:49,0.0
3893,-367,-762,-138,526,-30,2024-01-24 14:41:49,0.0
4238,-726,-931,-86,610,-95,2024-01-24 14:41:49,0.0
3962,-249,-475,-14,559,-50,2024-01-24 14:41:49,0.0
4329,-435,-510,-10,580,0,2024-01-24 14:41:49,0.0
4165,-482,-201,3,443,-68,2024-01-24 14:41:49,0.0
4124,-430,-292,111,357,-31,2024-01-24 14:41:49,0.0
4196,-208,-174,12,155,-26,2024-01-24 14:41:49,0.0
4341,-322,-78,-75,166,-25,2024-01-24 14:41:49,0.0
4282,-199,35,-164,28,32,2024-01-24 14:41:50,0.0
4302,-457,-97,-195,3,37,2024-01-24 14:41:50,0.0
4378,-338,51,-206,13,33,2024-01-24 14:41:50,0.0
4301,-446,222,-146,1,18,2024-01-24 14:41:50,0.0
4305,-378,155,-193,-19,1,2024-01-24 14:41:50,0.0
4311,-366,98,-144,-83,31,2024-01-24 14:41:50,0.0
4367,-490,124,-123,-125,24,2024-01-24 14:41:50,0.0
4297,-452,137,-40,-109,6,2024-01-24 14:41:50,0.0
4275,-489,61,22,-152,34,2024-01-24 14:41:50,0.0
4424,-376,35,23,-82,6,2024-01-24 14:41:50,0.0
4309,-441,124,76,-39,23,2024-01-24 14:41:50,0.0
4355,-399,76,68,-91,24,2024-01-24 14:41:50,0.0
4325,-359,-3,54,-28,33,2024-01-24 14:41:50,0.0
4353,-308,-2,13,-22,20,2024-01-24 14:41:50,0.0
4383,-346,-102,-44,-15,18,2024-01-24 14:41:50,0.0
4299,-310,43,-90,-3,12,2024-01-24 14:41:50,0.0
4280,-398,-68,-102,-45,19,2024-01-24 14:41:50,0.0
4273,-492,-84,-62,16,-10,2024-01-24 14:41:50,0.0
4275,-378,-74,15,-12,-1,2024-01-24 14:41:51,0.0
4275,-250,-79,-111,-79,49,2024-01-24 14:41:51,0.0
4098,-560,-131,-111,-204,46,2024-01-24 14:41:51,0.0
3745,-720,-286,20,-353,96,2024-01-24 14:41:51,0.0
4119,-70,-603,-10,-445,108,2024-01-24 14:41:51,0.0
3552,-687,59,-53,-466,108,2024-01-24 14:41:51,0.0
3264,-537,-942,-2,-824,76,2024-01-24 14:41:51,0.0
4513,-245,-529,-81,-326,178,2024-01-24 14:41:51,0.0
4150,-786,-576,-3,-217,141,2024-01-24 14:41:51,0.0
3769,-493,-375,39,-65,48,2024-01-24 14:41:51,0.0
4637,-467,-669,-76,-292,80,2024-01-24 14:41:51,0.0
4159,-474,-843,-335,-519,63,2024-01-24 14:41:51,0.0
4537,-1004,-892,-50,-226,49,2024-01-24 14:41:51,0.0
4104,-766,-780,0,-467,133,2024-01-24 14:41:51,0.0
4573,-815,-1134,138,64,-43,2024-01-24 14:41:51,0.0
3856,-452,-545,63,60,12,2024-01-24 14:41:51,0.0
4234,-900,-1323,50,120,-32,2024-01-24 14:41:51,0.0
3849,-1086,-1270,250,56,-238,2024-01-24 14:41:52,0.0
4196,111,-568,324,217,-342,2024-01-24 14:41:52,0.0
5904,-508,-1443,-88,-303,-123,2024-01-24 14:41:52,0.0
4645,-133,-622,213,731,-142,2024-01-24 14:41:52,0.0
5505,-823,-615,86,490,-186,2024-01-24 14:41:52,0.0
5038,-266,-365,32,821,-67,2024-01-24 14:41:52,0.0
3683,-373,272,-69,819,-9,2024-01-24 14:41:52,0.0
4326,-367,270,-75,483,11,2024-01-24 14:41:52,0.0
4690,-296,50,-38,568,-41,2024-01-24 14:41:52,0.0
4308,-518,322,-34,407,-41,2024-01-24 14:41:52,0.0
4024,-415,629,41,353,-55,2024-01-24 14:41:52,0.0
4282,-297,686,29,162,23,2024-01-24 14:41:52,0.0
4304,-305,636,-9,215,8,2024-01-24 14:41:52,0.0
4185,-284,610,-49,99,25,2024-01-24 14:41:52,0.0
4254,-329,635,-97,-32,-3,2024-01-24 14:41:52,0.0
4186,-354,817,-78,83,96,2024-01-24 14:41:52,0.0
4595,-497,336,-47,314,-33,2024-01-24 14:41:52,0.0
3908,-292,864,-14,13,10,2024-01-24 14:41:52,0.0
4360,-343,737,-70,-15,15,2024-01-24 14:41:53,
4141,-367,825,-14,-67,21,2024-01-24 14:41:53,0.0
4347,-337,562,-41,-190,43,2024-01-24 14:41:53,0.0
4298,-400,641,-37,-98,53,2024-01-24 14:41:53,0.0
4205,-365,706,-34,-104,32,2024-01-24 14:41:53,0.0
4216,-398,626,-108,-286,-27,2024-01-24 14:41:53,0.0
4281,-394,520,-58,-403,7,2024-01-24 14:41:53,0.0
4572,-398,155,-33,-62,54,2024-01-24 14:41:53,0.0
4342,-343,410,-77,-102,-33,2024-01-24 14:41:53,0.0
4256,-392,365,-57,-156,29,2024-01-24 14:41:53,0.0
4548,-536,177,-143,41,24,2024-01-24 14:41:53,0.0
4146,-398,527,-31,211,-7,2024-01-24 14:41:53,0.0
4370,-493,426,-81,-180,97,2024-01-24 14:41:53,0.0
4336,-316,466,-87,-69,-32,2024-01-24 14:41:53,0.0
4232,-412,504,-57,-141,59,2024-01-24 14:41:53,0.0
4411,-518,385,-72,-96,-9,2024-01-24 14:41:53,0.0
4296,-444,414,26,-119,43,2024-01-24 14:41:53,0.0
4336,-410,311,35,-111,37,2024-01-24 14:41:54,0.0
4284,-373,301,-45,-141,27,2024-01-24 14:41:54,0.0
4398,-504,259,-43,-184,33,2024-01-24 14:41:54,0.0
4284,-484,315,-57,-131,5,2024-01-24 14:41:54,0.0
4325,-413,204,-30,-93,-24,2024-01-24 14:41:54,0.0
4366,-494,110,-40,5,-6,2024-01-24 14:41:54,0.0
4350,-380,222,-49,-17,-25,2024-01-24 14:41:54,0.0
4297,-438,144,-15,-75,18,2024-01-24 14:41:54,0.0
4277,-439,115,-31,-54,5,2024-01-24 14:41:54,0.0
4377,-428,124,-27,-55,17,2024-01-24 14:41:54,0.0
4302,-408,164,-57,-84,-1,2024-01-24 14:41:54,0.0
4326,-445,144,-49,-90,12,2024-01-24 14:41:54,0.0
4338,-505,135,-61,-78,-9,2024-01-24 14:41:54,0.0
4297,-381,207,-50,-72,24,2024-01-24 14:41:54,0.0
4371,-438,136,-57,-49,7,2024-01-24 14:41:54,0.0
4312,-421,150,-43,-1,-4,2024-01-24 14:41:54,0.0
4348,-478,127,-18,-52,28,2024-01-24 14:41:54,0.0
4308,-434,92,-49,-15,1,2024-01-24 14:41:54,0.0
4263,-452,124,-30,-56,11,2024-01-24 14:41:55,0.0
4356,-382,145,-44,-73,6,2024-01-24 14:41:55,0.0
4340,-431,171,-44,-20,18,2024-01-24 14:41:55,0.0
4354,-459,146,-24,-32,8,2024-01-24 14:41:55,0.0
4304,-430,114,-21,-59,2,2024-01-24 14:41:55,0.0
4286,-414,94,-67,-192,28,2024-01-24 14:41:55,0.0
4284,-390,94,-123,-274,-6,2024-01-24 14:41:55,0.0
4054,-436,73,-163,-469,23,2024-01-24 14:41:55,0.0
4107,-465,56,-89,-735,23,2024-01-24 14:41:55,0.0
4134,-421,-228,-159,-801,59,2024-01-24 14:41:55,0.0
4515,-355,124,-125,-1012,122,2024-01-24 14:41:55,0.0
5148,-514,-613,-154,-1226,230,2024-01-24 14:41:55,0.0
5547,-871,-1177,-100,-1257,166,2024-01-24 14:41:55,0.0
5641,-689,-1938,18,-395,92,2024-01-24 14:41:55,0.0
4792,-814,-1884,37,22,139,2024-01-24 14:41:55,0.0
4596,-691,-1805,-38,-331,8,2024-01-24 14:41:55,0.0
4409,-633,-1781,11,-52,17,2024-01-24 14:41:55,0.0
3976,-696,-1295,98,-109,-74,2024-01-24 14:41:56,0.0
4031,-325,-1426,102,14,-18,2024-01-24 14:41:56,0.0
3593,-625,-976,6,350,-62,2024-01-24 14:41:56,0.0
3559,-418,-989,-10,283,-138,2024-01-24 14:41:56,0.0
3682,-630,-989,-44,561,-106,2024-01-24 14:41:56,0.0
3530,-474,-960,8,561,-131,2024-01-24 14:41:56,0.0
3632,-359,-866,-20,812,-55,2024-01-24 14:41:56,0.0
3532,-578,-673,-42,692,9,2024-01-24 14:41:56,0.0
4354,-625,-781,-24,659,-13,2024-01-24 14:41:56,0.0
3900,-433,-474,-102,660,-43,2024-01-24 14:41:56,0.0
4062,-496,-553,-208,412,-25,2024-01-24 14:41:56,0.0
4146,-516,-406,-147,344,-16,2024-01-24 14:41:56,0.0
3816,-443,-262,-176,215,4,2024-01-24 14:41:56,0.0
4414,-631,-245,-114,47,36,2024-01-24 14:41:56,0.0
4206,-342,-126,-68,91,-10,2024-01-24 14:41:56,0.0
4448,-351,-103,-96,34,6,2024-01-24 14:41:56,0.0
4252,-374,-6,-103,-19,-28,2024-01-24 14:41:56,0.0
4320,-412,-106,-90,-18,-21,2024-01-24 14:41:56,0.0
4400,-355,83,-54,-22,-32,2024-01-24 14:41:57,0.0
4274,-385,-104,-39,13,-10,2024-01-24 14:41:57,0.0
4306,-397,-51,-53,-87,5,2024-01-24 14:41:57,0.0
4405,-557,51,47,-41,16,2024-01-24 14:41:57,0.0
4298,-316,79,67,27,-4,2024-01-24 14:41:57,0.0
4302,-408,85,14,-26,13,2024-01-24 14:41:57,0.0
4384,-356,38,2,-11,11,2024-01-24 14:41:57,0.0
4272,-472,96,-1,-5,12,2024-01-24 14:41:57,0.0
4302,-406,90,7,-40,2,2024-01-24 14:41:57,0.0
4340,-336,55,-18,3,13,2024-01-24 14:41:57,0.0
4370,-451,93,-29,-34,14,2024-01-24 14:41:57,0.0
4295,-456,107,-33,-36,13,2024-01-24 14:41:57,0.0
4322,-455,97,-15,-39,7,2024-01-24 14:41:57,0.0
4295,-446,59,13,21,19,2024-01-24 14:41:57,0.0
4319,-418,62,17,-15,27,2024-01-24 14:41:57,0.0
4340,-378,102,-15,-5,27,2024-01-24 14:41:57,0.0
4329,-428,75,-35,-22,20,2024-01-24 14:41:57,0.0
4351,-433,111,-33,34,16,2024-01-24 14:41:58,0.0
4326,-444,93,-7,13,27,2024-01-24 14:41:58,0.0
4344,-419,95,-19,-6,32,2024-01-24 14:41:58,0.0
4315,-245,53,-109,-7,42,2024-01-24 14:41:58,0.0
4240,-151,0,-276,-90,47,2024-01-24 14:41:58,0.0
4361,-353,-142,-371,-161,74,2024-01-24 14:41:58,0.0
3813,-540,-383,-319,-285,57,2024-01-24 14:41:58,0.0
3876,-766,-404,-199,-420,40,2024-01-24 14:41:58,0.0
3804,-549,-346,-14,-388,69,2024-01-24 14:41:58,0.0
3275,-340,-250,-173,-644,37,2024-01-24 14:41:58,0.0
3824,-396,-645,-318,-910,247,2024-01-24 14:41:58,0.0
3869,-1274,-380,22,-759,275,2024-01-24 14:41:58,0.0
4025,-664,-729,249,-469,86,2024-01-24 14:41:58,0.0
4060,-636,-656,119,-653,235,2024-01-24 14:41:58,
3955,-599,-995,233,-540,30,2024-01-24 14:41:58,0.0
4310,-717,-843,141,-391,146,2024-01-24 14:41:58,0.0
4640,-653,-1520,29,-75,-34,2024-01-24 14:41:58,0.0
4626,-961,-1100,53,179,-33,2024-01-24 14:41:58,0.0
4809,-734,-1336,35,174,-164,2024-01-24 14:41:59,0.0
4005,-709,-874,95,320,-108,2024-01-24 14:41:59,0.0
4235,-674,-1382,-24,-38,-311,2024-01-24 14:41:59,0.0
4422,-773,-1132,61,460,-189,2024-01-24 14:41:59,0.0
5203,-677,-1360,37,42,-98,2024-01-24 14:41:59,0.0
4778,-999,-802,81,1105,-112,2024-01-24 14:41:59,0.0
4633,-568,-353,92,408,-74,2024-01-24 14:41:59,0.0
4618,-652,-404,-41,737,-123,2024-01-24 14:41:59,0.0
4209,-636,74,82,667,-201,2024-01-24 14:41:59,0.0
4400,-527,90,157,666,-130,2024-01-24 14:41:59,0.0
4512,-426,281,170,325,-125,2024-01-24 14:41:59,0.0
4165,-214,578,212,526,-71,2024-01-24 14:41:59,0.0
4388,131,482,-49,303,-126,2024-01-24 14:41:59,0.0
4145,-467,738,-143,486,-88,2024-01-24 14:41:59,0.0
4168,-446,850,43,118,-46,2024-01-24 14:41:59,0.0
4285,-155,663,-20,48,-5,2024-01-24 14:41:59,0.0
4211,-253,761,-113,8,21,2024-01-24 14:41:59,0.0
4197,-436,792,-14,14,19,2024-01-24 14:42:00,0.0
4290,-287,709,-16,-84,48,2024-01-24 14:42:00,0.0
4167,-282,678,-68,-109,53,2024-01-24 14:42:00,0.0
4285,-301,644,-86,-234,77,2024-01-24 14:42:00,0.0
4339,-319,604,-99,-235,45,2024-01-24 14:42:00,0.0
4370,-439,458,-142,-269,10,2024-01-24 14:42:00,0.0
4137,-386,471,-131,-249,12,2024-01-24 14:42:00,0.0
4156,-355,332,-125,-437,79,2024-01-24 14:42:00,0.0
4597,-429,311,-44,-306,63,2024-01-24 14:42:00,0.0
4492,-418,266,-2,-5,56,2024-01-24 14:42:00,0.0
4058,-476,280,-64,-216,46,2024-01-24 14:42:00,0.0
4252,-482,-57,-33,-434,120,2024-01-24 14:42:00,0.0
4402,-494,-81,-54,-269,47,2024-01-24 14:42:00,0.0
4402,-521,-85,-90,-346,34,2024-01-24 14:42:00,0.0
4372,-492,-196,-49,-197,-19,2024-01-24 14:42:00,0.0
4326,-512,-137,-69,-32,12,2024-01-24 14:42:00,0.0
4187,-389,-139,-55,-209,-22,2024-01-24 14:42:00,0.0
4278,-386,-152,-68,-233,46,2024-01-24 14:42:00,0.0
4366,-486,-345,-30,-125,15,2024-01-24 14:42:01,0.0
4421,-440,-303,-39,-124,34,2024-01-24 14:42:01,0.0
4280,-486,-215,-46,-85,24,2024-01-24 14:42:01,0.0
4355,-446,-337,-49,-28,-2,2024-01-24 14:42:01,0.0
4318,-478,-333,-77,8,7,2024-01-24 14:42:01,0.0
4342,-535,-267,-55,-53,6,2024-01-24 14:42:01,0.0
4351,-416,-336,-49,10,-18,2024-01-24 14:42:01,0.0
4312,-529,-241,-49,-12,0,2024-01-24 14:42:01,0.0
4333,-483,-325,-23,23,-15,2024-01-24 14:42:01,0.0
4330,-463,-317,-13,63,-26,2024-01-24 14:42:01,0.0
4219,-411,-188,-19,15,16,2024-01-24 14:42:01,0.0
4142,-458,-215,-48,-230,-5,2024-01-24 14:42:01,0.0
4121,-306,-240,-73,-571,67,2024-01-24 14:42:01,0.0
4256,-448,-433,-133,-726,59,2024-01-24 14:42:01,0.0
4010,-379,-517,-136,-958,86,2024-01-24 14:42:01,0.0
4929,-501,-452,-123,-785,103,2024-01-24 14:42:01,0.0
4782,-681,-918,-110,-686,74,2024-01-24 14:42:01,0.0
4884,-687,-1363,5,-373,167,2024-01-24 14:42:02,0.0
5105,-879,-1616,-58,15,18,2024-01-24 14:42:02,0.0
4830,-663,-1572,85,-108,90,2024-01-24 14:42:02,0.0
4611,-557,-1561,11,-487,146,2024-01-24 14:42:02,0.0
5214,-593,-1965,-194,-359,113,2024-01-24 14:42:02,0.0
4265,-695,-1673,-51,-145,229,2024-01-24 14:42:02,0.0
4267,-764,-1477,-286,-363,-3,2024-01-24 14:42:02,0.0
4128,-668,-1314,-45,-65,79,2024-01-24 14:42:02,0.0
3702,-444,-1078,-141,161,22,2024-01-24 14:42:02,0.0
3523,-473,-992,-125,355,25,2024-01-24 14:42:02,0.0
3673,-662,-1043,-36,707,-19,2024-01-24 14:42:02,0.0
3678,-514,-1070,65,766,-62,2024-01-24 14:42:02,0.0
3702,-486,-924,30,830,-95,2024-01-24 14:42:02,0.0
3565,-466,-801,128,882,-61,2024-01-24 14:42:02,0.0
3945,-138,-986,-82,876,25,2024-01-24 14:42:02,0.0
3701,-763,-307,-117,382,-92,2024-01-24 14:42:02,0.0
4580,-506,-633,-340,373,-75,2024-01-24 14:42:02,0.0
4103,-768,-343,-328,420,-51,2024-01-24 14:42:02,0.0
3790,-627,-332,-250,206,-13,2024-01-24 14:42:03,0.0
4118,-705,-203,-156,123,48,2024-01-24 14:42:03,0.0
4289,-684,-252,-90,118,41,2024-01-24 14:42:03,0.0
4189,-590,-183,-17,167,37,2024-01-24 14:42:03,0.0
4359,-598,127,-11,38,-11,2024-01-24 14:42:03,0.0
4198,-515,-2,32,41,-12,2024-01-24 14:42:03,0.0
4267,-461,53,0,-10,15,2024-01-24 14:42:03,0.0
4374,-519,198,-29,34,25,2024-01-24 14:42:03,0.0
4252,-546,72,-2,-40,22,2024-01-24 14:42:03,0.0
4277,-489,103,-50,-20,1,2024-01-24 14:42:03,0.0
4306,-548,117,-45,-4,-1,2024-01-24 14:42:03,0.0
4351,-452,198,-46,-7,14,2024-01-24 14:42:03,0.0
4346,-538,123,-41,-26,23,2024-01-24 14:42:03,0.0
4275,-551,142,-29,-49,21,2024-01-24 14:42:03,0.0
4350,-527,72,-44,20,14,2024-01-24 14:42:03,0.0
4318,-530,189,-26,30,12,2024-01-24 14:42:03,0.0
4334,-593,191,-38,60,6,2024-01-24 14:42:03,0.0
4311,-525,217,-32,10,20,2024-01-24 14:42:04,0.0
4300,-587,171,-30,-38,19,2024-01-24 14:42:04,0.0
4338,-577,249,-45,0,18,2024-01-24 14:42:04,0.0
4341,-572,221,-24,-18,26,2024-01-24 14:42:04,0.0
4312,-564,198,-35,2,19,2024-01-24 14:42:04,0.0
4287,-624,180,-26,-14,25,2024-01-24 14:42:04,0.0
4301,-588,173,-2,-36,19,2024-01-24 14:42:04,0.0
4355,-559,178,-2,60,10,2024-01-24 14:42:04,0.0
4268,-541,354,-33,-18,5,2024-01-24 14:42:04,
4358,-536,246,-4,-12,6,2024-01-24 14:42:04,0.0
4275,-543,241,-8,-1,6,2024-01-24 14:42:04,0.0
4292,-622,207,20,-5,21,2024-01-24 14:42:04,0.0
4326,-546,269,17,7,16,2024-01-24 14:42:04,0.0
4264,-627,217,37,-12,-5,2024-01-24 14:42:04,0.0
4226,-567,285,41,-38,-29,2024-01-24 14:42:04,0.0
4387,-514,299,77,1,-12,2024-01-24 14:42:04,0.0
4214,-437,280,70,-36,14,2024-01-24 14:42:04,0.0
4390,-537,365,69,-68,16,2024-01-24 14:42:05,0.0
4301,-522,283,66,-31,-3,2024-01-24 14:42:05,0.0
4269,-598,266,82,-95,3,2024-01-24 14:42:05,0.0
4263,-687,152,132,-126,-19,2024-01-24 14:42:05,0.0
4303,-670,149,228,-144,5,2024-01-24 14:42:05,0.0
4078,-532,-49,213,-132,24,2024-01-24 14:42:05,0.0
4062,-613,161,246,-172,86,2024-01-24 14:42:05,0.0
3986,-618,-131,130,-395,68,2024-01-24 14:42:05,0.0
4134,-384,54,58,-329,121,2024-01-24 14:42:05,0.0
4190,-326,65,-148,-346,179,2024-01-24 14:42:05,0.0
4397,-559,-30,-213,-263,145,2024-01-24 14:42:05,0.0
4178,-1190,30,-116,-380,43,2024-01-24 14:42:05,0.0
4325,-789,-142,63,-586,25,2024-01-24 14:42:05,0.0
4309,-465,-463,35,-365,95,2024-01-24 14:42:05,0.0
4042,-410,-416,-225,-438,145,2024-01-24 14:42:05,0.0
3915,-547,-657,-408,-510,127,2024-01-24 14:42:05,0.0
4036,-793,-613,-456,-491,200,2024-01-24 14:42:05,0.0
3901,-815,-961,-374,-475,69,2024-01-24 14:42:05,0.0
4021,-1053,-1050,-174,-371,164,2024-01-24 14:42:06,0.0
3972,-682,-790,-39,-310,80,2024-01-24 14:42:06,0.0
3889,-799,-1306,-83,-182,10,2024-01-24 14:42:06,0.0
4136,-790,-1006,-16,-199,4,2024-01-24 14:42:06,0.0
4092,-592,-1263,-72,-300,-104,2024-01-24 14:42:06,0.0
3905,-730,-910,-10,-195,-63,2024-01-24 14:42:06,0.0
4697,-713,-1508,-56,-30,-233,2024-01-24 14:42:06,0.0
4318,-598,-1190,74,102,-87,2024-01-24 14:42:06,0.0
4156,-796,-1494,-62,274,-129,2024-01-24 14:42:06,0.0
4442,-748,-1239,-35,143,5,2024-01-24 14:42:06,0.0
4571,-874,-1404,-9,547,-47,2024-01-24 14:42:06,0.0
4380,-680,-1252,-77,368,61,2024-01-24 14:42:06,0.0
4501,-923,-1037,21,473,-52,2024-01-24 14:42:06,0.0
4310,-563,-671,46,634,-123,2024-01-24 14:42:06,0.0
4721,-685,-622,-23,607,-67,2024-01-24 14:42:06,0.0
4788,-714,-494,69,623,-57,2024-01-24 14:42:06,0.0
4431,-455,48,35,600,-197,2024-01-24 14:42:06,0.0
4281,-481,196,25,474,-47,2024-01-24 14:42:07,0.0
4382,-198,212,8,417,-152,2024-01-24 14:42:07,0.0
4307,-448,234,-148,370,-46,2024-01-24 14:42:07,0.0
4302,-595,550,-17,408,-55,2024-01-24 14:42:07,0.0
4324,-396,636,-61,196,-46,2024-01-24 14:42:07,0.0
4127,-439,764,-114,233,-48,2024-01-24 14:42:07,0.0
4279,-276,636,-80,14,-52,2024-01-24 14:42:07,0.0
4268,-309,603,-36,2,13,2024-01-24 14:42:07,0.0
4276,-415,585,-60,-37,11,2024-01-24 14:42:07,0.0
4275,-449,472,-28,-47,19,2024-01-24 14:42:07,0.0
4262,-417,467,-24,-174,62,2024-01-24 14:42:07,0.0
4318,-545,401,38,-108,30,2024-01-24 14:42:07,0.0
4278,-374,562,49,-139,52,2024-01-24 14:42:07,0.0
4344,-233,292,-22,-97,23,2024-01-24 14:42:07,0.0
4218,-526,441,-81,-60,91,2024-01-24 14:42:07,0.0
4379,-510,258,-48,-65,30,2024-01-24 14:42:07,0.0
4260,-406,364,-21,-124,40,2024-01-24 14:42:07,0.0
4429,-575,360,-7,-90,3,2024-01-24 14:42:07,0.0
4247,-389,276,-10,-149,25,2024-01-24 14:42:08,0.0
4300,-510,213,-30,-155,76,2024-01-24 14:42:08,0.0
4393,-470,200,-78,-90,40,2024-01-24 14:42:08,0.0
4361,-522,277,-47,-52,6,2024-01-24 14:42:08,0.0
4291,-433,216,-76,-71,1,2024-01-24 14:42:08,0.0
4257,-453,228,-68,-105,11,2024-01-24 14:42:08,0.0
4200,-494,274,-70,-148,4,2024-01-24 14:42:08,0.0
4061,-504,197,-90,-361,44,2024-01-24 14:42:08,0.0
4195,-530,34,-111,-588,37,2024-01-24 14:42:08,0.0
4071,-575,-11,-89,-786,57,2024-01-24 14:42:08,0.0
4022,-592,-414,-101,-1128,76,2024-01-24 14:42:08,0.0
5334,-511,-485,-95,-409,86,2024-01-24 14:42:08,0.0
4684,-418,-30,-67,256,-33,2024-01-24 14:42:08,0.0
4283,-524,289,-108,-543,150,2024-01-24 14:42:08,0.0
4958,-697,-684,0,-747,90,2024-01-24 14:42:08,0.0
4838,-756,-1116,55,-1372,173,2024-01-24 14:42:08,0.0
5027,-803,-1792,34,-696,147,2024-01-24 14:42:08,0.0
4349,-736,-1571,10,-795,128,2024-01-24 14:42:09,0.0
4567,-878,-1825,48,-421,120,2024-01-24 14:42:09,0.0
4194,-568,-1703,-1,-496,60,2024-01-24 14:42:09,0.0
4163,-740,-1729,21,-192,63,2024-01-24 14:42:09,0.0
4039,-774,-1662,-81,-208,14,2024-01-24 14:42:09,0.0
3844,-888,-1556,28,167,-26,2024-01-24 14:42:09,0.0
3709,-701,-1446,28,70,-58,2024-01-24 14:42:09,0.0
3761,-661,-1561,-12,370,-78,2024-01-24 14:42:09,0.0
3600,-597,-1261,-21,343,-67,2024-01-24 14:42:09,0.0
3539,-626,-1216,-79,492,-119,2024-01-24 14:42:09,0.0
3654,-550,-1254,-83,672,-149,2024-01-24 14:42:09,0.0
3640,-557,-899,-105,730,-133,2024-01-24 14:42:09,0.0
3994,-771,-1121,-42,625,-63,2024-01-24 14:42:09,0.0
4166,-430,-939,-92,615,-154,2024-01-24 14:42:09,0.0
4057,-542,-845,-134,555,-15,2024-01-24 14:42:09,0.0
3754,-455,-662,-128,458,-46,2024-01-24 14:42:09,0.0
4069,-797,-563,-145,161,20,2024-01-24 14:42:09,0.0
4283,-748,-714,43,215,7,2024-01-24 14:42:09,0.0
4043,-397,-627,-50,158,-30,2024-01-24 14:42:10,0.0
4329,-339,-427,-108,5,87,2024-01-24 14:42:10,0.0
4357,-500,-400,-361,148,9,2024-01-24 14:42:10,0.0
4179,-582,-156,-275,-5,104,2024-01-24 14:42:10,
4296,-772,-350,-233,-32,-1,2024-01-24 14:42:10,0.0
4292,-400,-199,-151,-81,25,2024-01-24 14:42:10,0.0
4306,-729,-116,-126,-102,-13,2024-01-24 14:42:10,0.0
4289,-471,-348,-9,-70,-16,2024-01-24 14:42:10,0.0
4360,-626,-308,18,-49,16,2024-01-24 14:42:10,0.0
4331,-486,-203,107,-46,-2,2024-01-24 14:42:10,0.0
4365,-504,-286,55,-23,26,2024-01-24 14:42:10,0.0
4313,-452,-272,-2,-35,24,2024-01-24 14:42:10,0.0
4283,-509,-203,-13,-24,42,2024-01-24 14:42:10,0.0
4259,-546,-273,-26,-51,33,2024-01-24 14:42:10,0.0
4444,-608,-413,6,-42,41,2024-01-24 14:42:10,0.0
4310,-561,-265,30,-2,6,2024-01-24 14:42:10,0.0
4318,-555,-224,30,-68,-1,2024-01-24 14:42:10,0.0
4365,-476,-322,36,-27,13,2024-01-24 14:42:11,0.0
4316,-545,-220,15,-40,22,2024-01-24 14:42:11,0.0
4273,-541,-304,-18,-27,24,2024-01-24 14:42:11,0.0
4214,-479,-280,-100,-59,24,2024-01-24 14:42:11,0.0
4246,-494,-366,-194,-110,45,2024-01-24 14:42:11,0.0
4373,-673,-538,-185,-71,45,2024-01-24 14:42:11,0.0
4155,-806,-463,-64,-83,38,2024-01-24 14:42:11,0.0
4132,-588,-644,-67,-274,79,2024-01-24 14:42:11,0.0
4171,-797,-731,-12,-293,94,2024-01-24 14:42:11,0.0
4048,-708,-603,146,-355,123,2024-01-24 14:42:11,0.0
4070,-771,-798,140,-444,183,2024-01-24 14:42:11,0.0
3980,-800,-883,225,-436,161,2024-01-24 14:42:11,0.0
4046,-744,-880,154,-450,172,2024-01-24 14:42:11,0.0
3373,-589,-1033,130,-340,52,2024-01-24 14:42:11,0.0
4212,-392,-1167,-221,-571,133,2024-01-24 14:42:11,0.0
3372,-611,-539,-394,-253,65,2024-01-24 14:42:11,0.0
3942,-1147,-1031,-205,-732,162,2024-01-24 14:42:11,0.0
3886,-994,-917,-44,-215,72,2024-01-24 14:42:11,0.0
3973,-683,-1048,-30,-126,-1,2024-01-24 14:42:12,0.0
3873,-1165,-1171,-65,-3,3,2024-01-24 14:42:12,0.0
4193,-617,-1132,-71,-18,-115,2024-01-24 14:42:12,0.0
4043,-1070,-1266,-243,-12,-11,2024-01-24 14:42:12,0.0
4431,-921,-1341,-27,9,-112,2024-01-24 14:42:12,0.0
4405,-910,-1485,-76,89,-111,2024-01-24 14:42:12,0.0
4111,-890,-1289,142,95,-170,2024-01-24 14:42:12,0.0
4611,-607,-1601,-41,86,-214,2024-01-24 14:42:12,0.0
4059,-751,-1300,19,490,-212,2024-01-24 14:42:12,0.0
4333,-730,-1167,1,242,-121,2024-01-24 14:42:12,0.0
5121,-830,-1641,39,595,-288,2024-01-24 14:42:12,0.0
4435,-492,-801,33,778,-294,2024-01-24 14:42:12,0.0
5016,-758,-826,127,789,-128,2024-01-24 14:42:12,0.0
4632,-191,-450,45,755,-257,2024-01-24 14:42:12,0.0
4335,-92,84,49,669,-30,2024-01-24 14:42:12,0.0
4569,-245,247,31,813,-202,2024-01-24 14:42:12,0.0
4034,-45,610,-55,600,-118,2024-01-24 14:42:12,0.0
4453,-330,546,-47,421,23,2024-01-24 14:42:13,0.0
4218,-242,627,-42,457,-65,2024-01-24 14:42:13,0.0
4289,-236,738,-73,311,14,2024-01-24 14:42:13,0.0
4155,-279,865,-41,375,-12,2024-01-24 14:42:13,0.0
4235,-258,865,-63,63,35,2024-01-24 14:42:13,0.0
4238,-342,801,-58,49,39,2024-01-24 14:42:13,0.0
4164,-209,812,-46,-30,6,2024-01-24 14:42:13,0.0
4268,-248,859,-55,-144,48,2024-01-24 14:42:13,0.0
4176,-245,776,-77,-169,24,2024-01-24 14:42:13,0.0
4270,-336,735,-58,-205,42,2024-01-24 14:42:13,0.0
4257,-296,688,-68,-316,42,2024-01-24 14:42:13,0.0
4223,-356,667,-86,-281,38,2024-01-24 14:42:13,0.0
4283,-349,533,-77,-475,62,2024-01-24 14:42:13,0.0
4372,-296,414,-31,-580,103,2024-01-24 14:42:13,0.0
4489,-425,241,-36,-367,70,2024-01-24 14:42:13,0.0
4198,-642,242,39,-104,-3,2024-01-24 14:42:13,0.0
4086,-337,381,23,-750,84,2024-01-24 14:42:13,0.0
4192,-163,266,-95,-1037,220,2024-01-24 14:42:13,0.0
4239,-315,-491,-55,-1417,401,2024-01-24 14:42:14,0.0
4618,-602,-906,-96,-1054,212,2024-01-24 14:42:14,0.0
4157,-579,-1236,-67,-1050,187,2024-01-24 14:42:14,0.0
3947,-617,-1491,-93,-872,140,2024-01-24 14:42:14,0.0
4030,-704,-1695,-158,-948,127,2024-01-24 14:42:14,0.0
4187,-606,-1917,-117,-457,40,2024-01-24 14:42:14,0.0
3928,-720,-1756,-68,-320,95,2024-01-24 14:42:14,0.0
3943,-795,-1974,-47,-140,13,2024-01-24 14:42:14,0.0
3956,-780,-1851,-57,-32,27,2024-01-24 14:42:14,0.0
3934,-770,-1818,-53,-17,-25,2024-01-24 14:42:14,0.0
3884,-642,-1854,-41,172,7,2024-01-24 14:42:14,0.0
3769,-690,-1679,-61,36,-1,2024-01-24 14:42:14,0.0
3813,-714,-1666,-51,-118,-17,2024-01-24 14:42:14,0.0
4093,-606,-1580,-62,-293,4,2024-01-24 14:42:14,0.0
4353,-694,-1492,-141,-469,31,2024-01-24 14:42:14,0.0
4896,-684,-2039,-120,-787,128,2024-01-24 14:42:14,0.0
5102,-902,-2592,-98,-173,-10,2024-01-24 14:42:14,0.0
4524,-784,-2482,-15,264,26,2024-01-24 14:42:15,0.0
4448,-880,-2730,-23,16,33,2024-01-24 14:42:15,0.0
4302,-690,-2286,54,432,-40,2024-01-24 14:42:15,0.0
4055,-656,-1956,2,58,11,2024-01-24 14:42:15,0.0
3817,-640,-1780,37,114,-82,2024-01-24 14:42:15,0.0
3680,-585,-1575,32,162,-52,2024-01-24 14:42:15,0.0
3628,-679,-1414,29,172,-100,2024-01-24 14:42:15,0.0
3636,-554,-1528,15,363,-33,2024-01-24 14:42:15,0.0
3660,-538,-1335,-94,533,-106,2024-01-24 14:42:15,0.0
3507,-663,-1071,-125,570,-125,2024-01-24 14:42:15,0.0
3715,-533,-1014,-52,615,-88,2024-01-24 14:42:15,0.0
3807,-665,-983,-25,762,-89,2024-01-24 14:42:15,0.0
4088,-609,-886,22,719,-19,2024-01-24 14:42:15,0.0
3819,-538,-733,-22,546,-23,2024-01-24 14:42:15,0.0
3910,-620,-850,-74,524,-8,2024-01-24 14:42:15,0.0
3983,-525,-560,-94,399,-8,2024-01-24 14:42:15,0.0
3928,-797,-521,-85,275,15,2024-01-24 14:42:15,
4202,-348,-766,-91,277,-15,2024-01-24 14:42:15,0.0
4282,-450,-419,-248,242,17,2024-01-24 14:42:16,0.0
4339,-683,-476,-144,194,46,2024-01-24 14:42:16,0.0
4098,-348,-264,-234,99,1,2024-01-24 14:42:16,0.0
4324,-465,-346,-196,-9,45,2024-01-24 14:42:16,0.0
4352,-504,-378,-265,-25,8,2024-01-24 14:42:16,0.0
4275,-391,-181,-121,-51,49,2024-01-24 14:42:16,0.0
4448,-447,-456,-180,23,20,2024-01-24 14:42:16,0.0
4272,-321,-190,-168,-8,-3,2024-01-24 14:42:16,0.0
4304,-582,-303,-196,195,-32,2024-01-24 14:42:16,0.0
4356,-304,-73,-145,19,-57,2024-01-24 14:42:16,0.0
4317,-433,-96,-160,0,-42,2024-01-24 14:42:16,0.0
4302,-353,-49,-36,27,-6,2024-01-24 14:42:16,0.0
4382,-405,-133,-68,39,-6,2024-01-24 14:42:16,0.0
4283,-334,-59,-64,-35,4,2024-01-24 14:42:16,0.0
4339,-491,-156,-46,-12,16,2024-01-24 14:42:16,0.0
4281,-353,-91,-16,-48,15,2024-01-24 14:42:16,0.0
4337,-476,-67,27,-38,37,2024-01-24 14:42:16,0.0
4309,-446,-106,23,-95,7,2024-01-24 14:42:17,0.0
4341,-507,-142,74,-65,20,2024-01-24 14:42:17,0.0
4332,-467,-56,89,19,21,2024-01-24 14:42:17,0.0
4313,-503,-65,89,-73,19,2024-01-24 14:42:17,0.0
4364,-519,-119,75,-35,6,2024-01-24 14:42:17,0.0
4275,-536,-116,86,-89,14,2024-01-24 14:42:17,0.0
4327,-581,-186,102,-4,0,2024-01-24 14:42:17,0.0
4286,-537,-30,118,-40,14,2024-01-24 14:42:17,0.0
4324,-475,3,91,-61,31,2024-01-24 14:42:17,0.0
4259,-599,-19,88,9,25,2024-01-24 14:42:17,0.0
4349,-551,-42,89,-9,30,2024-01-24 14:42:17,0.0
4269,-553,-26,62,26,9,2024-01-24 14:42:17,0.0
4274,-495,-48,42,-40,8,2024-01-24 14:42:17,0.0
4255,-528,-150,13,-89,26,2024-01-24 14:42:17,0.0
4143,-582,-302,52,-181,43,2024-01-24 14:42:17,0.0
4029,-397,-577,-64,-353,54,2024-01-24 14:42:17,0.0
3917,-629,-622,-52,-509,141,2024-01-24 14:42:17,0.0
3496,-489,-937,-60,-493,43,2024-01-24 14:42:17,0.0
2836,-127,-607,-337,-1237,41,2024-01-24 14:42:18,0.0
3084,105,-1200,-827,-1358,-40,2024-01-24 14:42:18,0.0
4446,-620,-779,-615,-864,185,2024-01-24 14:42:18,0.0
4558,-1353,-1440,-261,-514,237,2024-01-24 14:42:18,0.0
5278,-890,-1501,-12,382,-86,2024-01-24 14:42:18,0.0
3925,-465,-615,59,100,203,2024-01-24 14:42:18,0.0
4118,-938,-1096,149,149,-15,2024-01-24 14:42:18,0.0
4449,-597,-989,266,50,40,2024-01-24 14:42:18,0.0
4120,-402,-1417,137,-117,79,2024-01-24 14:42:18,0.0
4273,-919,-1263,106,203,-7,2024-01-24 14:42:18,0.0
4564,-417,-1197,70,-32,-37,2024-01-24 14:42:18,0.0
4306,-931,-1059,85,511,24,2024-01-24 14:42:18,0.0
4217,-715,-1011,104,215,-12,2024-01-24 14:42:18,0.0
4232,-841,-976,-8,323,-135,2024-01-24 14:42:18,0.0
4719,-552,-1110,53,286,-84,2024-01-24 14:42:18,0.0
4493,-738,-883,33,583,-156,2024-01-24 14:42:18,0.0
4562,-613,-631,32,583,-173,2024-01-24 14:42:18,0.0
5108,-464,-527,56,640,-177,2024-01-24 14:42:19,0.0
4130,-62,-162,-66,656,-186,2024-01-24 14:42:19,0.0
4971,-840,98,-184,527,-73,2024-01-24 14:42:19,0.0
4374,-390,205,122,628,-47,2024-01-24 14:42:19,0.0
3936,-438,713,-21,322,-73,2024-01-24 14:42:19,0.0
4364,-406,545,-89,284,-25,2024-01-24 14:42:19,0.0
4162,-455,665,37,14,59,2024-01-24 14:42:19,0.0
4443,-342,545,-18,158,41,2024-01-24 14:42:19,0.0
4460,-368,461,-41,-14,17,2024-01-24 14:42:19,0.0
4100,-370,600,21,109,71,2024-01-24 14:42:19,0.0
4362,-350,374,-67,28,45,2024-01-24 14:42:19,0.0
4232,-395,510,-15,46,0,2024-01-24 14:42:19,0.0
4376,-379,411,-37,109,50,2024-01-24 14:42:19,0.0
4259,-632,686,55,-65,-2,2024-01-24 14:42:19,0.0
4307,-426,472,31,-80,35,2024-01-24 14:42:19,0.0
4237,-446,574,-29,-32,76,2024-01-24 14:42:19,0.0
4331,-543,485,-8,-33,7,2024-01-24 14:42:19,0.0
4281,-386,579,-38,-47,-19,2024-01-24 14:42:19,0.0
4240,-247,494,-93,-137,23,2024-01-24 14:42:20,0.0
4247,-382,483,-183,-217,42,2024-01-24 14:42:20,0.0
4231,-571,493,-142,-285,6,2024-01-24 14:42:20,0.0
4201,-500,366,-78,-366,0,2024-01-24 14:42:20,0.0
4006,-475,187,-13,-761,55,2024-01-24 14:42:20,0.0
4344,-453,-147,91,-448,151,2024-01-24 14:42:20,0.0
4363,-506,-89,7,-620,76,2024-01-24 14:42:20,0.0
4234,-562,118,-194,-897,41,2024-01-24 14:42:20,0.0
4452,-673,-168,-139,-702,-2,2024-01-24 14:42:20,0.0
4866,-217,-296,-114,-500,315,2024-01-24 14:42:20,0.0
4878,-911,-319,-262,-1046,89,2024-01-24 14:42:20,0.0
5651,-739,-1451,98,-1400,14,2024-01-24 14:42:20,0.0
5440,-757,-1731,-48,-245,28,2024-01-24 14:42:20,0.0
4987,-1081,-2008,-125,-485,-4,2024-01-24 14:42:20,0.0
4758,-713,-1983,50,-109,11,2024-01-24 14:42:21,0.0
3794,-948,-1473,-43,-401,-121,2024-01-24 14:42:21,0.0
3885,-840,-1586,250,-225,-156,2024-01-24 14:42:21,0.0
2999,-180,-1197,294,50,-128,2024-01-24 14:42:21,0.0
3091,-163,-1332,182,168,51,2024-01-24 14:42:21,0.0
3291,-386,-1477,-57,455,63,2024-01-24 14:42:21,0.0
3137,-490,-891,-343,80,29,2024-01-24 14:42:21,0.0
3795,-741,-1499,-368,88,105,2024-01-24 14:42:21,0.0
3809,-549,-1450,-261,369,104,2024-01-24 14:42:21,0.0
3797,-739,-1141,-167,284,151,2024-01-24 14:42:21,0.0
4044,-870,-1020,-42,90,70,2024-01-24 14:42:21,0.0
4250,-745,-1194,36,227,65,2024-01-24 14:42:21,0.0
4098,-594,-1000,176,219,-48,2024-01-24 14:42:21,0.0
3878,-433,-836,64,129,-61,2024-01-24 14:42:21,0.0
4321,-427,-1053,160,-51,-86,2024-01-24 14:42:21,
4211,-341,-963,92,57,-53,2024-01-24 14:42:21,0.0
4002,-565,-1117,48,40,-96,2024-01-24 14:42:21,0.0
4462,-422,-1144,-4,-28,-62,2024-01-24 14:42:21,0.0
4170,-176,-1371,-111,264,-59,2024-01-24 14:42:21,0.0
4373,-118,-1229,-433,356,33,2024-01-24 14:42:21,0.0
4283,-664,-894,-443,422,10,2024-01-24 14:42:21,0.0
4170,-521,-672,-465,413,40,2024-01-24 14:42:22,0.0
4046,-578,-423,-158,201,66,2024-01-24 14:42:22,0.0
4376,-384,-498,-104,53,21,2024-01-24 14:42:22,0.0
4254,-412,-617,16,51,-48,2024-01-24 14:42:22,0.0
4204,-393,-602,47,76,-135,2024-01-24 14:42:22,0.0
4262,-314,-503,77,-22,-159,2024-01-24 14:42:22,0.0
4250,-555,-514,135,67,-219,2024-01-24 14:42:22,0.0
4219,25,-412,236,-31,-32,2024-01-24 14:42:22,0.0
4274,-302,-726,-1,73,-12,2024-01-24 14:42:22,0.0
4250,-184,-342,-101,4,-19,2024-01-24 14:42:22,0.0
4311,-670,-464,-166,3,14,2024-01-24 14:42:22,0.0
4255,-680,-312,107,21,104,2024-01-24 14:42:22,0.0
4350,-634,-596,35,-3,29,2024-01-24 14:42:22,0.0
3948,-755,-638,224,-76,19,2024-01-24 14:42:22,0.0
4257,-573,-754,47,-183,51,2024-01-24 14:42:22,0.0
3775,-970,-718,194,-291,159,2024-01-24 14:42:22,0.0
3475,-542,-836,112,-479,237,2024-01-24 14:42:22,0.0
3429,-852,-1007,27,-607,326,2024-01-24 14:42:23,0.0
3757,-514,-743,22,-672,434,2024-01-24 14:42:23,0.0
2990,-505,-985,-411,-735,247,2024-01-24 14:42:23,0.0
4391,-1114,-1145,-48,-332,355,2024-01-24 14:42:23,0.0
4216,-482,-848,-336,-411,51,2024-01-24 14:42:23,0.0
4132,-743,-1317,-283,109,36,2024-01-24 14:42:23,0.0
4100,-856,-973,-152,-360,112,2024-01-24 14:42:23,0.0
4607,-779,-1328,-137,237,-137,2024-01-24 14:42:23,0.0
4475,-821,-1246,-58,76,-120,2024-01-24 14:42:23,0.0
4333,-673,-1141,4,271,-163,2024-01-24 14:42:23,0.0
4242,-574,-1194,-38,213,-168,2024-01-24 14:42:23,0.0
4112,-846,-1152,31,248,-140,2024-01-24 14:42:23,0.0
4438,-565,-1314,46,201,-276,2024-01-24 14:42:23,0.0
4444,-690,-937,101,586,-297,2024-01-24 14:42:23,0.0
5461,24,-1521,-56,89,-207,2024-01-24 14:42:23,0.0
4830,-614,-668,-104,1247,-161,2024-01-24 14:42:23,0.0
4773,-281,-254,-18,651,-384,2024-01-24 14:42:23,0.0
4677,-278,-365,-152,966,-130,2024-01-24 14:42:24,0.0
4150,-431,396,-112,770,-54,2024-01-24 14:42:24,0.0
4221,-525,628,-59,673,38,2024-01-24 14:42:24,0.0
4416,-288,646,0,583,-32,2024-01-24 14:42:24,0.0
4102,-55,806,-15,504,23,2024-01-24 14:42:24,0.0
4241,-296,1022,12,355,5,2024-01-24 14:42:24,0.0
4192,-156,944,37,172,-15,2024-01-24 14:42:24,0.0
4086,-101,1100,14,195,-20,2024-01-24 14:42:24,0.0
4372,-378,874,17,25,54,2024-01-24 14:42:24,0.0
4246,-92,924,-22,-7,-9,2024-01-24 14:42:24,0.0
4189,-309,904,-15,-57,110,2024-01-24 14:42:24,0.0
4086,-189,1023,-4,-64,60,2024-01-24 14:42:24,0.0
4225,-310,827,-40,-375,120,2024-01-24 14:42:24,0.0
4359,-229,702,-98,-195,73,2024-01-24 14:42:24,0.0
4189,-285,826,-114,-246,112,2024-01-24 14:42:24,0.0
4246,-357,644,-98,-365,68,2024-01-24 14:42:24,0.0
4404,-334,624,-54,-195,66,2024-01-24 14:42:24,0.0
4249,-362,536,-48,-209,49,2024-01-24 14:42:24,0.0
4336,-399,454,-26,-152,85,2024-01-24 14:42:25,0.0
4301,-437,515,-22,-141,59,2024-01-24 14:42:25,0.0
4326,-462,322,0,-128,66,2024-01-24 14:42:25,0.0
4310,-452,419,-20,10,3,2024-01-24 14:42:25,0.0
4279,-449,414,4,-35,75,2024-01-24 14:42:25,0.0
4430,-471,323,-29,32,6,2024-01-24 14:42:25,0.0
4258,-395,518,-40,21,0,2024-01-24 14:42:25,0.0
4315,-434,493,-66,-5,5,2024-01-24 14:42:25,0.0
4252,-446,603,-56,-81,7,2024-01-24 14:42:25,0.0
4346,-439,442,-49,-59,-18,2024-01-24 14:42:25,0.0
4333,-394,489,-84,-45,-5,2024-01-24 14:42:25,0.0
4299,-440,537,-59,-65,6,2024-01-24 14:42:25,0.0
4295,-374,416,-59,-61,-21,2024-01-24 14:42:25,0.0
4366,-454,389,-81,-167,-2,2024-01-24 14:42:25,0.0
4298,-430,389,9,-81,-9,2024-01-24 14:42:25,0.0
4349,-379,372,-49,-30,-17,2024-01-24 14:42:25,0.0
4334,-375,415,-54,-57,-30,2024-01-24 14:42:25,0.0
4304,-445,382,-23,-156,13,2024-01-24 14:42:26,0.0
4220,-321,350,-61,-127,-8,2024-01-24 14:42:26,0.0
4256,-348,310,-93,-350,45,2024-01-24 14:42:26,0.0
4171,-346,326,-77,-447,44,2024-01-24 14:42:26,0.0
4227,-291,217,-57,-646,49,2024-01-24 14:42:26,0.0
4319,-278,101,-136,-847,107,2024-01-24 14:42:26,0.0
4162,-424,-84,-188,-909,146,2024-01-24 14:42:26,0.0
4580,-515,-276,-131,-1047,192,2024-01-24 14:42:26,0.0
5010,-565,-787,-126,-851,192,2024-01-24 14:42:26,0.0
5009,-825,-996,-17,-896,224,2024-01-24 14:42:26,0.0
4906,-726,-1379,-44,-1022,228,2024-01-24 14:42:26,0.0
5185,-896,-2029,99,-278,134,2024-01-24 14:42:26,0.0
4755,-889,-1966,28,-416,93,2024-01-24 14:42:26,0.0
4728,-842,-1898,68,-57,42,2024-01-24 14:42:26,0.0
4311,-879,-1700,-20,-368,-39,2024-01-24 14:42:26,0.0
4027,-755,-1612,-46,-170,-95,2024-01-24 14:42:26,0.0
3935,-725,-1443,21,-141,-56,2024-01-24 14:42:26,0.0
3734,-693,-1460,77,378,-96,2024-01-24 14:42:26,0.0
3371,-541,-1187,18,354,-146,2024-01-24 14:42:27,0.0
3280,-657,-1049,20,602,-159,2024-01-24 14:42:27,0.0
3136,-551,-1073,-17,675,-189,2024-01-24 14:42:27,0.0
3434,-430,-1056,-47,657,-79,2024-01-24 14:42:27,0.0
3723,-420,-1093,-146,535,-48,2024-01-24 14:42:27,0.0
4322,-653,-939,-244,571,-33,2024-01-24 14:42:27,0.0
3968,-508,-706,-297,512,-107,2024-01-24 14:42:27,
4001,-625,-573,-228,321,-34,2024-01-24 14:42:27,0.0
4260,-404,-385,-234,211,-85,2024-01-24 14:42:27,0.0
4255,-364,-399,-223,193,-29,2024-01-24 14:42:27,0.0
4131,-376,-375,-247,117,-63,2024-01-24 14:42:27,0.0
4256,-399,-398,-163,32,-31,2024-01-24 14:42:27,0.0
4507,-210,-435,-184,29,-108,2024-01-24 14:42:27,0.0
4026,-282,-714,-181,58,27,2024-01-24 14:42:27,0.0
4824,-277,-128,-192,101,-10,2024-01-24 14:42:27,0.0
4264,-177,-500,-25,-93,49,2024-01-24 14:42:27,0.0
4245,-188,-510,-68,78,41,2024-01-24 14:42:27,0.0
4183,-277,-267,9,52,16,2024-01-24 14:42:28,0.0
4344,-248,-207,-4,-3,-13,2024-01-24 14:42:28,0.0
4301,-301,-166,-19,-24,6,2024-01-24 14:42:28,0.0
4410,-297,-410,-38,-45,-7,2024-01-24 14:42:28,0.0
4266,-427,-235,31,16,17,2024-01-24 14:42:28,0.0
4406,-237,-306,20,59,-19,2024-01-24 14:42:28,0.0
4286,-304,-125,59,35,41,2024-01-24 14:42:28,0.0
4374,-305,-277,24,25,10,2024-01-24 14:42:28,0.0
4340,-418,-189,52,-18,63,2024-01-24 14:42:28,0.0
4301,-294,-248,-23,36,1,2024-01-24 14:42:28,0.0
4345,-427,-202,-21,-49,71,2024-01-24 14:42:28,0.0
4352,-499,-274,-16,-30,22,2024-01-24 14:42:28,0.0
4177,-549,-266,32,-168,44,2024-01-24 14:42:28,0.0
4333,-552,-357,136,-65,35,2024-01-24 14:42:28,0.0
4223,-460,-274,143,-120,83,2024-01-24 14:42:28,0.0
4445,-625,-104,199,-72,101,2024-01-24 14:42:28,0.0
4383,-660,-87,315,-8,56,2024-01-24 14:42:28,0.0
4349,-275,-46,206,-87,17,2024-01-24 14:42:28,0.0
4432,-516,-150,131,-122,28,2024-01-24 14:42:29,0.0
4207,-388,-99,65,-54,-19,2024-01-24 14:42:29,0.0
4523,-364,-273,-78,-55,-29,2024-01-24 14:42:29,0.0
4208,-554,-158,-55,125,15,2024-01-24 14:42:29,0.0
4143,-389,-269,-165,-49,25,2024-01-24 14:42:29,0.0
4151,-554,-598,-186,-90,72,2024-01-24 14:42:29,0.0
3900,-627,-543,-147,-196,103,2024-01-24 14:42:29,0.0
3781,-556,-720,-67,-468,161,2024-01-24 14:42:29,0.0
3239,-642,-607,25,-513,164,2024-01-24 14:42:29,0.0
2553,-245,-572,-236,-1091,56,2024-01-24 14:42:29,0.0
4689,-505,-1195,-379,-948,221,2024-01-24 14:42:29,0.0
4273,-723,-997,-140,-494,239,2024-01-24 14:42:29,0.0
3550,-728,-729,-68,-456,81,2024-01-24 14:42:29,0.0
4701,-565,-818,-150,-516,99,2024-01-24 14:42:29,0.0
4649,-1026,-1682,101,-260,63,2024-01-24 14:42:29,0.0
4006,-491,-999,8,3,-77,2024-01-24 14:42:29,0.0
4730,-956,-1281,-92,252,-64,2024-01-24 14:42:29,0.0
4312,-636,-1271,97,315,-45,2024-01-24 14:42:30,0.0
4156,-855,-1168,-51,469,-111,2024-01-24 14:42:30,0.0
4270,-642,-1345,-19,275,-170,2024-01-24 14:42:30,0.0
4022,-519,-1061,-109,198,-89,2024-01-24 14:42:30,0.0
4855,-899,-1336,-128,436,-128,2024-01-24 14:42:30,0.0
4307,-520,-850,47,635,-231,2024-01-24 14:42:30,0.0
5023,-326,-973,-73,413,-292,2024-01-24 14:42:30,0.0
4840,-263,-660,-55,1241,-184,2024-01-24 14:42:30,0.0
4966,-568,-400,41,583,-158,2024-01-24 14:42:30,0.0
4098,-43,-103,1,866,-169,2024-01-24 14:42:30,0.0
4158,-449,624,-41,668,-26,2024-01-24 14:42:30,0.0
4687,-248,394,43,645,19,2024-01-24 14:42:30,0.0
4184,-63,777,-5,659,-16,2024-01-24 14:42:30,0.0
4332,-211,859,-64,341,35,2024-01-24 14:42:30,0.0
4054,-261,914,3,229,34,2024-01-24 14:42:30,0.0
4311,-296,869,-21,213,24,2024-01-24 14:42:30,0.0
4222,-470,952,71,205,61,2024-01-24 14:42:30,0.0
4140,-161,1112,37,200,37,2024-01-24 14:42:30,0.0
4113,-238,1292,-45,103,57,2024-01-24 14:42:31,0.0
4100,-242,1046,-13,-274,91,2024-01-24 14:42:31,0.0
4269,-393,693,-45,-290,49,2024-01-24 14:42:31,0.0
4308,-280,961,-67,-242,71,2024-01-24 14:42:31,0.0
4249,-280,771,-56,-195,58,2024-01-24 14:42:31,0.0
4204,-345,926,-89,-199,62,2024-01-24 14:42:31,0.0
4317,-343,798,-12,-112,65,2024-01-24 14:42:31,0.0
4174,-444,638,-78,-143,54,2024-01-24 14:42:31,0.0
4248,-459,507,-72,-89,42,2024-01-24 14:42:31,0.0
4383,-529,545,14,-162,26,2024-01-24 14:42:31,0.0
4289,-286,768,-65,-103,-3,2024-01-24 14:42:31,0.0
4300,-440,592,-24,-163,39,2024-01-24 14:42:31,0.0
4248,-381,613,-50,-104,14,2024-01-24 14:42:31,0.0
4305,-402,607,-57,-98,28,2024-01-24 14:42:31,0.0
4322,-427,506,-51,-151,-3,2024-01-24 14:42:31,0.0
4252,-374,471,-46,-71,-10,2024-01-24 14:42:31,0.0
4274,-403,559,-59,-123,16,2024-01-24 14:42:31,0.0
4379,-462,524,-43,-148,-18,2024-01-24 14:42:32,0.0
4326,-369,530,-90,-181,-19,2024-01-24 14:42:32,0.0
4268,-461,394,-45,-190,57,2024-01-24 14:42:32,0.0
4346,-376,194,-62,-195,35,2024-01-24 14:42:32,0.0
4275,-378,243,-90,-229,34,2024-01-24 14:42:32,0.0
4249,-426,300,-77,-193,14,2024-01-24 14:42:32,0.0
4656,-500,451,-37,315,-18,2024-01-24 14:42:32,0.0
3628,-535,890,-11,-337,68,2024-01-24 14:42:32,0.0
4517,-253,212,-41,-911,229,2024-01-24 14:42:32,0.0
4367,-420,94,-64,-637,133,2024-01-24 14:42:32,0.0
4642,-359,113,-33,-855,259,2024-01-24 14:42:32,0.0
5046,-608,-816,-88,-1296,246,2024-01-24 14:42:32,0.0
4998,-893,-977,-143,-835,126,2024-01-24 14:42:32,0.0
5270,-776,-1325,-18,-745,187,2024-01-24 14:42:32,0.0
4955,-845,-1475,-125,-489,61,2024-01-24 14:42:32,0.0
4894,-827,-1587,-108,-612,83,2024-01-24 14:42:32,0.0
4258,-937,-1451,-97,-418,-49,2024-01-24 14:42:32,0.0
4382,-519,-1392,-31,-290,-40,2024-01-24 14:42:32,0.0
3828,-805,-1006,-38,125,-114,2024-01-24 14:42:33,0.0
3832,-719,-1050,87,146,-162,2024-01-24 14:42:33,
3560,-511,-1088,155,516,-116,2024-01-24 14:42:33,0.0
3674,-416,-1048,-32,377,-84,2024-01-24 14:42:33,0.0
3758,-557,-1090,-116,546,-76,2024-01-24 14:42:33,0.0
3297,-535,-818,11,526,-81,2024-01-24 14:42:33,0.0
3713,-686,-932,-32,419,-95,2024-01-24 14:42:33,0.0
3671,-517,-615,99,511,-72,2024-01-24 14:42:33,0.0
4220,-730,-819,186,418,-125,2024-01-24 14:42:33,0.0
4158,-427,-445,126,454,-125,2024-01-24 14:42:33,0.0
3985,-334,-481,153,323,-79,2024-01-24 14:42:33,0.0
4371,-235,-427,-32,275,-27,2024-01-24 14:42:33,0.0
4127,-188,-239,-204,110,45,2024-01-24 14:42:33,0.0
4451,-261,-422,-403,223,36,2024-01-24 14:42:33,0.0
4254,-307,-128,-501,183,86,2024-01-24 14:42:33,0.0
4379,-529,-141,-485,160,0,2024-01-24 14:42:33,0.0
4287,-455,-99,-415,5,-43,2024-01-24 14:42:33,0.0
4315,-713,-242,-253,60,-72,2024-01-24 14:42:34,0.0
4228,-482,-112,-43,-88,-77,2024-01-24 14:42:34,0.0
4355,-622,67,118,-145,-47,2024-01-24 14:42:34,0.0
4374,-315,-42,176,-151,-32,2024-01-24 14:42:34,0.0
4365,-422,-171,192,-130,29,2024-01-24 14:42:34,0.0
4477,-264,-158,158,6,14,2024-01-24 14:42:34,0.0
4239,-328,28,65,39,-2,2024-01-24 14:42:34,0.0
4224,-379,-135,45,-62,-9,2024-01-24 14:42:34,0.0
4357,-293,-29,-34,-216,57,2024-01-24 14:42:34,0.0
4200,-422,-353,-4,-224,61,2024-01-24 14:42:34,0.0
4289,-327,-614,-51,-352,23,2024-01-24 14:42:34,0.0
4123,-426,-545,-7,-261,44,2024-01-24 14:42:34,0.0
3585,-364,-748,32,-430,7,2024-01-24 14:42:34,0.0
3951,-416,-777,-57,-626,67,2024-01-24 14:42:34,0.0
3367,-250,-399,-162,-678,98,2024-01-24 14:42:34,0.0
3998,-824,-1284,-24,-845,79,2024-01-24 14:42:34,0.0
3213,-300,-507,-56,-382,57,2024-01-24 14:42:34,0.0
3378,-174,-737,-233,-735,290,2024-01-24 14:42:34,0.0
4744,-728,-1468,7,-367,105,2024-01-24 14:42:35,0.0
4306,-612,-791,-99,-96,166,2024-01-24 14:42:35,0.0
4406,-540,-1443,-20,-254,22,2024-01-24 14:42:35,0.0
5279,-790,-1098,39,-3,0,2024-01-24 14:42:35,0.0
4632,-755,-1512,-57,115,-58,2024-01-24 14:42:35,0.0
4337,-549,-1126,123,12,27,2024-01-24 14:42:35,0.0
4478,-672,-1661,-135,4,-4,2024-01-24 14:42:35,0.0
3889,-897,-1149,21,139,-35,2024-01-24 14:42:35,0.0
3954,-400,-1234,30,-10,-50,2024-01-24 14:42:35,0.0
3782,-640,-1231,-84,60,-87,2024-01-24 14:42:35,0.0
3968,-436,-1234,-9,45,-82,2024-01-24 14:42:35,0.0
4022,-481,-1305,-34,235,-78,2024-01-24 14:42:35,0.0
4302,-325,-1541,-74,54,-59,2024-01-24 14:42:35,0.0
4398,-644,-1022,-71,444,-108,2024-01-24 14:42:35,0.0
4833,-452,-1386,-2,244,-63,2024-01-24 14:42:35,0.0
4843,-527,-1325,9,886,-95,2024-01-24 14:42:35,0.0
4509,-546,-464,39,1356,-288,2024-01-24 14:42:35,0.0
4413,-143,-338,61,1007,-257,2024-01-24 14:42:36,0.0
4433,-106,172,53,780,55,2024-01-24 14:42:36,0.0
4493,-330,308,-45,1112,1,2024-01-24 14:42:36,0.0
4351,-22,796,12,463,147,2024-01-24 14:42:36,0.0
4051,-609,929,34,502,-48,2024-01-24 14:42:36,0.0
4510,-142,633,-50,7,-72,2024-01-24 14:42:36,0.0
3895,-449,1126,-18,220,93,2024-01-24 14:42:36,0.0
4299,-313,791,-78,204,86,2024-01-24 14:42:36,0.0
4172,-267,1065,4,82,49,2024-01-24 14:42:36,0.0
4178,-309,922,-95,10,33,2024-01-24 14:42:36,0.0
4232,-345,942,-64,-115,61,2024-01-24 14:42:36,0.0
4192,-392,905,-73,-325,65,2024-01-24 14:42:36,0.0
4208,-352,710,-44,-111,46,2024-01-24 14:42:36,0.0
4366,-351,789,-61,-242,54,2024-01-24 14:42:36,0.0
4325,-408,701,-49,-213,43,2024-01-24 14:42:36,0.0
4202,-323,632,-77,-398,74,2024-01-24 14:42:36,0.0
4350,-463,468,-90,-308,75,2024-01-24 14:42:36,0.0
4305,-462,414,-64,-259,40,2024-01-24 14:42:36,0.0
4318,-539,355,-33,-237,56,2024-01-24 14:42:37,0.0
4313,-430,322,-40,-102,17,2024-01-24 14:42:37,0.0
4387,-433,235,-48,-64,26,2024-01-24 14:42:37,0.0
4288,-511,269,-42,-135,24,2024-01-24 14:42:37,0.0
4224,-445,270,-53,-46,-33,2024-01-24 14:42:37,0.0
4449,-397,415,-9,-1,40,2024-01-24 14:42:37,0.0
4311,-527,238,-63,-85,-10,2024-01-24 14:42:37,0.0
4315,-532,230,-13,-27,-24,2024-01-24 14:42:37,0.0
4281,-485,291,-34,-89,-40,2024-01-24 14:42:37,0.0
4314,-410,192,-41,-22,-63,2024-01-24 14:42:37,0.0
4273,-439,318,-46,-97,-6,2024-01-24 14:42:37,0.0
4299,-440,229,-48,-99,-60,2024-01-24 14:42:37,0.0
4329,-378,250,-4,-99,-64,2024-01-24 14:42:37,0.0
4157,-354,316,-18,-155,-25,2024-01-24 14:42:37,0.0
4270,-329,114,-63,-220,42,2024-01-24 14:42:37,0.0
4375,-271,172,-70,-292,47,2024-01-24 14:42:37,0.0
4245,-427,170,-94,-386,36,2024-01-24 14:42:37,0.0
4236,-295,-76,-111,-476,-8,2024-01-24 14:42:38,0.0
4257,-458,-77,-190,-599,16,2024-01-24 14:42:38,0.0
4198,-381,-150,-111,-760,136,2024-01-24 14:42:38,0.0
4296,-395,-524,-106,-851,145,2024-01-24 14:42:38,0.0
4562,-314,-598,-136,-644,89,2024-01-24 14:42:38,0.0
4611,-653,-808,-93,-958,56,2024-01-24 14:42:38,0.0
4481,-296,-1282,-99,-949,186,2024-01-24 14:42:38,0.0
4956,-818,-1654,-94,-744,194,2024-01-24 14:42:38,0.0
4631,-544,-1995,-46,-548,100,2024-01-24 14:42:38,0.0
4518,-790,-1920,-1,-530,89,2024-01-24 14:42:38,0.0
4479,-764,-2335,-64,-533,68,2024-01-24 14:42:38,0.0
4395,-891,-2239,43,-555,67,2024-01-24 14:42:38,0.0
4227,-538,-2409,89,-207,17,2024-01-24 14:42:38,0.0
3859,-650,-1920,-74,-410,100,2024-01-24 14:42:38,0.0
3877,-754,-2094,-81,-46,-19,2024-01-24 14:42:38,
3549,-447,-1747,-30,-89,25,2024-01-24 14:42:38,0.0
3329,-618,-1560,-85,98,34,2024-01-24 14:42:38,0.0
3347,-570,-1551,-31,191,-17,2024-01-24 14:42:39,0.0
3241,-652,-1380,-30,474,-32,2024-01-24 14:42:39,0.0
3654,-554,-1650,-28,401,-20,2024-01-24 14:42:39,0.0
3651,-658,-1646,-20,724,-42,2024-01-24 14:42:39,0.0
3768,-519,-1563,-27,694,5,2024-01-24 14:42:39,0.0
3908,-719,-1306,-96,693,2,2024-01-24 14:42:39,0.0
3849,-731,-1448,1,809,-79,2024-01-24 14:42:39,0.0
4001,-695,-951,6,566,-37,2024-01-24 14:42:39,0.0
4154,-505,-783,-31,470,-51,2024-01-24 14:42:39,0.0
4237,-559,-722,-82,443,-50,2024-01-24 14:42:39,0.0
4087,-529,-688,-141,290,-44,2024-01-24 14:42:39,0.0
4165,-575,-781,-119,331,-55,2024-01-24 14:42:39,0.0
4032,-482,-566,-117,252,-4,2024-01-24 14:42:39,0.0
4505,-590,-540,-98,169,-32,2024-01-24 14:42:39,0.0
4066,-323,-359,-125,87,-49,2024-01-24 14:42:39,0.0
4357,-397,-552,-156,-34,-10,2024-01-24 14:42:39,0.0
4117,-506,-505,-131,72,-18,2024-01-24 14:42:39,0.0
4515,-369,-338,-72,-68,1,2024-01-24 14:42:39,0.0
4315,-469,-353,-87,21,-17,2024-01-24 14:42:40,0.0
4338,-380,-364,-29,-6,-14,2024-01-24 14:42:40,0.0
4301,-378,-326,-43,14,-5,2024-01-24 14:42:40,0.0
4288,-322,-351,-51,-1,22,2024-01-24 14:42:40,0.0
4332,-432,-313,-74,-18,6,2024-01-24 14:42:40,0.0
4311,-444,-417,-73,50,-1,2024-01-24 14:42:40,0.0
4312,-418,-272,-80,37,2,2024-01-24 14:42:40,0.0
4324,-493,-382,-42,11,20,2024-01-24 14:42:40,0.0
4302,-334,-379,-67,21,-6,2024-01-24 14:42:40,0.0
4325,-417,-309,-101,40,5,2024-01-24 14:42:40,0.0
4356,-418,-220,-119,-12,-13,2024-01-24 14:42:40,0.0
4261,-476,-303,-83,11,5,2024-01-24 14:42:40,0.0
4342,-473,-281,-41,-13,15,2024-01-24 14:42:40,0.0
4323,-451,-246,6,-23,14,2024-01-24 14:42:40,0.0
4330,-532,-271,28,-32,19,2024-01-24 14:42:40,0.0
4173,-417,-364,45,-135,20,2024-01-24 14:42:40,0.0
4211,-501,-520,67,-210,42,2024-01-24 14:42:40,0.0
4210,-536,-468,81,-337,65,2024-01-24 14:42:41,0.0
4274,-454,-404,173,-236,56,2024-01-24 14:42:41,0.0
4101,-533,-680,151,-236,65,2024-01-24 14:42:41,0.0
4233,-485,-637,221,-239,88,2024-01-24 14:42:41,0.0
3987,-389,-739,148,-305,86,2024-01-24 14:42:41,0.0
4014,-567,-558,172,-341,147,2024-01-24 14:42:41,0.0
3708,-505,-749,-58,-446,-10,2024-01-24 14:42:41,0.0
4125,-516,-798,-94,-614,169,2024-01-24 14:42:41,0.0
3663,-823,-1014,-70,-536,163,2024-01-24 14:42:41,0.0
3579,-451,-935,-191,-639,197,2024-01-24 14:42:41,0.0
3926,-672,-1247,-278,-553,169,2024-01-24 14:42:41,0.0
4232,-996,-1106,-339,-619,225,2024-01-24 14:42:41,0.0
3735,-907,-1332,-246,-163,113,2024-01-24 14:42:41,0.0
4425,-684,-1316,-152,-388,47,2024-01-24 14:42:41,0.0
3711,-897,-1311,-230,137,-42,2024-01-24 14:42:41,0.0
3924,-820,-1112,6,-93,-92,2024-01-24 14:42:41,0.0
3858,-308,-1506,-115,344,-186,2024-01-24 14:42:41,0.0
4797,-882,-1634,-325,469,-44,2024-01-24 14:42:41,0.0
4139,-883,-1470,-38,921,-142,2024-01-24 14:42:42,0.0
4429,-543,-1240,1,507,-133,2024-01-24 14:42:42,0.0
4792,-924,-1633,68,650,-309,2024-01-24 14:42:42,0.0
4284,-451,-1206,233,449,-333,2024-01-24 14:42:42,0.0
5181,-49,-1211,103,0,-125,2024-01-24 14:42:42,0.0
4820,-429,-562,178,845,-17,2024-01-24 14:42:42,0.0
4753,-261,385,116,891,-234,2024-01-24 14:42:42,0.0
4562,-201,-87,34,512,-95,2024-01-24 14:42:42,0.0
4296,-434,297,-9,522,-109,2024-01-24 14:42:42,0.0
4223,-125,287,-14,397,39,2024-01-24 14:42:42,0.0
4346,-323,260,-73,259,-14,2024-01-24 14:42:42,0.0
4257,-386,-20,45,39,24,2024-01-24 14:42:42,0.0
4435,-86,425,-60,239,-30,2024-01-24 14:42:42,0.0
4089,-245,731,-98,22,50,2024-01-24 14:42:42,0.0
4427,-341,531,-93,-174,51,2024-01-24 14:42:42,0.0
4320,-355,284,-24,-36,-24,2024-01-24 14:42:42,0.0
4358,-300,67,6,-14,28,2024-01-24 14:42:42,0.0
4322,-334,111,-21,43,13,2024-01-24 14:42:43,0.0
4366,-244,218,-12,56,29,2024-01-24 14:42:43,0.0
4288,-247,343,-39,-9,40,2024-01-24 14:42:43,0.0
4340,-318,336,-64,29,9,2024-01-24 14:42:43,0.0
4240,-318,427,-19,-19,39,2024-01-24 14:42:43,0.0
4384,-287,287,-96,9,-1,2024-01-24 14:42:43,0.0
4130,-331,418,-61,-278,46,2024-01-24 14:42:43,0.0
4118,-325,315,-97,-341,36,2024-01-24 14:42:43,0.0
4288,-300,315,-82,-585,108,2024-01-24 14:42:43,0.0
4305,-389,117,-104,-607,73,2024-01-24 14:42:43,0.0
4232,-341,67,-100,-850,129,2024-01-24 14:42:43,0.0
4757,-345,1,-70,-358,141,2024-01-24 14:42:43,0.0
6382,-595,-753,-111,1574,7,2024-01-24 14:42:43,0.0
2751,-43,1504,-211,-832,50,2024-01-24 14:42:43,0.0
5108,-648,-556,-86,-1461,205,2024-01-24 14:42:43,0.0
5311,-715,-1058,-151,-712,41,2024-01-24 14:42:43,0.0
4804,-570,-971,15,-1022,245,2024-01-24 14:42:43,0.0
4803,-635,-1278,24,-413,199,2024-01-24 14:42:43,0.0
4873,-674,-1589,-95,-770,63,2024-01-24 14:42:44,0.0
4191,-704,-1265,-44,-401,19,2024-01-24 14:42:44,0.0
4172,-693,-1189,56,-393,24,2024-01-24 14:42:44,0.0
3989,-484,-1288,-7,-101,-77,2024-01-24 14:42:44,0.0
3708,-723,-1050,68,-7,43,2024-01-24 14:42:44,0.0
3719,-538,-1116,60,38,-97,2024-01-24 14:42:44,0.0
3734,-544,-1201,58,321,-12,2024-01-24 14:42:44,0.0
3393,-461,-917,-18,424,-92,2024-01-24 14:42:44,0.0
3736,-613,-1005,-78,509,-92,2024-01-24 14:42:44,0.0
3471,-655,-958,-15,473,-59,2024-01-24 14:42:44,
3968,-591,-1091,31,659,-105,2024-01-24 14:42:44,0.0
3858,-681,-721,-148,379,-114,2024-01-24 14:42:44,0.0
4198,-581,-656,-3,235,-75,2024-01-24 14:42:44,0.0
4308,-510,-761,-139,294,-94,2024-01-24 14:42:44,0.0
4071,-518,-615,17,355,37,2024-01-24 14:42:44,0.0
4267,-413,-559,-39,313,35,2024-01-24 14:42:44,0.0
4163,-523,-336,-48,65,44,2024-01-24 14:42:44,0.0
4230,-288,-687,-51,126,9,2024-01-24 14:42:45,0.0
4357,-380,-468,-12,74,95,2024-01-24 14:42:45,0.0
4346,-336,-367,-145,73,85,2024-01-24 14:42:45,0.0
4312,-490,-226,-74,176,111,2024-01-24 14:42:45,0.0
4190,-493,-231,-105,84,35,2024-01-24 14:42:45,0.0
4368,-378,-188,-136,-92,27,2024-01-24 14:42:45,0.0
4288,-472,-283,-127,-114,-6,2024-01-24 14:42:45,0.0
4463,-362,-323,-133,-101,4,2024-01-24 14:42:45,0.0
4268,-487,-358,-119,-31,-5,2024-01-24 14:42:45,0.0
4333,-368,-199,-102,-47,0,2024-01-24 14:42:45,0.0
4311,-449,-300,-125,-51,-16,2024-01-24 14:42:45,0.0
4350,-375,-145,-105,-28,11,2024-01-24 14:42:45,0.0
4415,-420,-339,-148,9,-28,2024-01-24 14:42:45,0.0
4279,-494,-170,-104,17,-13,2024-01-24 14:42:45,0.0
4400,-452,-228,-89,12,-36,2024-01-24 14:42:45,0.0
4239,-536,-171,-54,-80,-37,2024-01-24 14:42:45,0.0
4427,-588,-273,33,-56,-29,2024-01-24 14:42:45,0.0
4263,-478,-304,57,54,-28,2024-01-24 14:42:45,0.0
4355,-557,-275,90,12,24,2024-01-24 14:42:46,0.0
4318,-505,-196,86,-64,5,2024-01-24 14:42:46,0.0
4354,-561,-362,110,-43,34,2024-01-24 14:42:46,0.0
4252,-492,-315,124,-16,13,2024-01-24 14:42:46,0.0
3954,-469,-496,99,-181,31,2024-01-24 14:42:46,0.0
4400,-600,-497,106,-357,76,2024-01-24 14:42:46,0.0
3903,-418,-873,55,-416,48,2024-01-24 14:42:46,0.0
3636,-714,-788,114,-713,142,2024-01-24 14:42:46,0.0
3753,-498,-1111,96,-794,112,2024-01-24 14:42:46,0.0
3588,-618,-1005,135,-727,192,2024-01-24 14:42:46,0.0
3780,-704,-714,258,-217,-10,2024-01-24 14:42:46,0.0
4055,-297,-914,76,-772,13,2024-01-24 14:42:46,0.0
3906,-609,-845,370,276,159,2024-01-24 14:42:46,0.0
4141,-282,-636,-121,-387,-60,2024-01-24 14:42:46,0.0
4322,-630,-1450,-157,-12,40,2024-01-24 14:42:46,0.0
3335,-701,-800,-331,-390,103,2024-01-24 14:42:46,0.0
4362,-972,-1603,-212,-335,115,2024-01-24 14:42:46,0.0
4388,-735,-1058,-307,-187,71,2024-01-24 14:42:47,0.0
4207,-778,-1497,-186,84,53,2024-01-24 14:42:47,0.0
4191,-759,-1111,-229,251,-41,2024-01-24 14:42:47,0.0
4832,-498,-1651,-196,226,22,2024-01-24 14:42:47,0.0
4222,-810,-1081,-241,463,-18,2024-01-24 14:42:47,0.0
4563,-924,-1001,-92,449,-162,2024-01-24 14:42:47,0.0
5418,-640,-1467,60,320,-193,2024-01-24 14:42:47,0.0
5068,-488,-1390,43,764,-197,2024-01-24 14:42:47,0.0
4041,-549,-619,141,855,-204,2024-01-24 14:42:47,0.0
4398,-209,-414,107,643,-194,2024-01-24 14:42:47,0.0
4234,-409,106,-50,742,-144,2024-01-24 14:42:47,0.0
4977,-480,1,58,927,-27,2024-01-24 14:42:47,0.0
4344,-366,194,-19,783,-17,2024-01-24 14:42:47,0.0
3933,-284,964,-23,586,-97,2024-01-24 14:42:47,0.0
4224,-85,748,-64,-62,-149,2024-01-24 14:42:47,0.0
4301,-232,701,-29,327,-24,2024-01-24 14:42:47,0.0
4128,-234,955,-64,153,-33,2024-01-24 14:42:47,0.0
4269,-295,771,-37,158,34,2024-01-24 14:42:47,0.0
4298,-216,825,8,-43,9,2024-01-24 14:42:48,0.0
4151,-247,711,-39,40,-2,2024-01-24 14:42:48,0.0
4374,-280,743,-37,-55,54,2024-01-24 14:42:48,0.0
4182,-251,702,-61,-39,34,2024-01-24 14:42:48,0.0
4298,-287,706,-47,-119,37,2024-01-24 14:42:48,0.0
4231,-184,766,-52,-143,36,2024-01-24 14:42:48,0.0
4287,-291,768,-76,-206,68,2024-01-24 14:42:48,0.0
4255,-326,565,-34,-266,48,2024-01-24 14:42:48,0.0
4269,-228,583,-40,-344,42,2024-01-24 14:42:48,0.0
4462,-421,291,-41,-220,70,2024-01-24 14:42:48,0.0
4452,-313,261,-47,83,-9,2024-01-24 14:42:48,0.0
3942,-467,513,-74,-180,2,2024-01-24 14:42:48,0.0
4510,-383,302,-49,-294,-2,2024-01-24 14:42:48,0.0
4340,-331,255,-76,-128,-1,2024-01-24 14:42:48,0.0
4237,-386,266,-55,-171,15,2024-01-24 14:42:48,0.0
4329,-368,222,-11,-170,-25,2024-01-24 14:42:48,0.0
4354,-276,248,-66,-190,43,2024-01-24 14:42:48,0.0
4383,-373,216,-51,-114,-5,2024-01-24 14:42:49,0.0
4294,-272,126,-6,-285,5,2024-01-24 14:42:49,0.0
4502,-248,-63,-1,-94,-5,2024-01-24 14:42:49,0.0
4564,-329,11,-34,124,41,2024-01-24 14:42:49,0.0
4077,-183,270,-49,101,69,2024-01-24 14:42:49,0.0
4333,-339,150,-26,-12,78,2024-01-24 14:42:49,0.0
4297,-365,272,-39,-22,27,2024-01-24 14:42:49,0.0
4301,-491,167,-49,-144,59,2024-01-24 14:42:49,0.0
4443,-382,63,-31,-225,31,2024-01-24 14:42:49,0.0
4257,-434,2,-40,-117,39,2024-01-24 14:42:49,0.0
4316,-382,91,-60,-237,31,2024-01-24 14:42:49,0.0
4280,-382,-57,-51,-272,65,2024-01-24 14:42:49,0.0
4387,-424,-113,-28,-174,40,2024-01-24 14:42:49,0.0
4368,-403,-135,-33,-104,53,2024-01-24 14:42:49,0.0
4420,-490,-166,-95,196,-36,2024-01-24 14:42:49,0.0
4317,-430,85,-32,3,0,2024-01-24 14:42:49,0.0
4240,-385,-64,-16,-107,23,2024-01-24 14:42:49,0.0
4339,-383,-78,-13,-164,40,2024-01-24 14:42:49,0.0
4400,-453,-180,-28,-80,29,2024-01-24 14:42:50,0.0
4230,-423,-6,-52,-97,15,2024-01-24 14:42:50,0.0
4266,-436,-188,-68,-261,55,2024-01-24 14:42:50,0.0
4089,-461,-3,-114,-361,13,2024-01-24 14:42:50,0.0
4262,-295,-138,-84,-669,41,2024-01-24 14:42:50,
4071,-363,-159,-109,-885,111,2024-01-24 14:42:50,0.0
4367,-283,-371,-164,-1121,121,2024-01-24 14:42:50,0.0
5058,-742,-1011,-68,-1225,199,2024-01-24 14:42:50,0.0
4901,-363,-1394,-59,-974,146,2024-01-24 14:42:50,0.0
4972,-1071,-2091,-126,-1000,129,2024-01-24 14:42:50,0.0
4659,-661,-2488,255,-628,103,2024-01-24 14:42:50,0.0
4787,-723,-2493,-66,-365,63,2024-01-24 14:42:50,0.0
4394,-829,-2416,52,-405,54,2024-01-24 14:42:50,0.0
4167,-603,-2211,-7,-212,-60,2024-01-24 14:42:50,0.0
3691,-772,-1981,61,-185,-11,2024-01-24 14:42:50,0.0
3781,-473,-1807,25,95,-122,2024-01-24 14:42:50,0.0
3577,-683,-1457,41,355,-46,2024-01-24 14:42:50,0.0
3484,-438,-1359,45,472,-137,2024-01-24 14:42:51,0.0
3675,-453,-1445,-56,647,-103,2024-01-24 14:42:51,0.0
3658,-564,-1295,-77,867,-125,2024-01-24 14:42:51,0.0
3672,-410,-1292,-87,855,-185,2024-01-24 14:42:51,0.0
3721,-496,-882,-184,896,-115,2024-01-24 14:42:51,0.0
4141,-589,-989,-29,835,-57,2024-01-24 14:42:51,0.0
3909,-395,-690,5,1100,-119,2024-01-24 14:42:51,0.0
3830,-430,-622,-36,813,-95,2024-01-24 14:42:51,0.0
3741,-391,-582,-40,565,-70,2024-01-24 14:42:51,0.0
4235,-305,-510,-109,352,-23,2024-01-24 14:42:51,0.0
4320,-362,-162,-127,438,-14,2024-01-24 14:42:51,0.0
4209,-347,49,-93,279,-23,2024-01-24 14:42:51,0.0
4296,-473,122,-39,219,-16,2024-01-24 14:42:51,0.0
4372,-373,113,1,199,-24,2024-01-24 14:42:51,0.0
4069,-375,248,59,-19,19,2024-01-24 14:42:51,0.0
4383,-365,163,11,64,-1,2024-01-24 14:42:51,0.0
4339,-315,192,74,57,67,2024-01-24 14:42:51,0.0
4282,-333,210,39,-10,39,2024-01-24 14:42:51,0.0
4401,-377,217,13,-15,57,2024-01-24 14:42:52,0.0
4300,-317,297,-4,-41,20,2024-01-24 14:42:52,0.0
4254,-475,258,24,-6,48,2024-01-24 14:42:52,0.0
4293,-352,344,30,-68,54,2024-01-24 14:42:52,0.0
4333,-372,299,-35,-95,40,2024-01-24 14:42:52,0.0
4396,-452,274,-5,-34,29,2024-01-24 14:42:52,0.0
4331,-278,385,-34,-30,24,2024-01-24 14:42:52,0.0
4312,-508,349,-15,-47,24,2024-01-24 14:42:52,0.0
4345,-374,313,-19,-39,9,2024-01-24 14:42:52,0.0
4404,-433,299,-41,-39,-6,2024-01-24 14:42:52,0.0
4285,-385,249,-5,-44,6,2024-01-24 14:42:52,0.0
4329,-398,237,-49,-86,10,2024-01-24 14:42:52,0.0
4315,-439,203,-17,-90,13,2024-01-24 14:42:52,0.0
4263,-392,72,-51,-161,1,2024-01-24 14:42:52,0.0
4210,-317,73,-36,-247,37,2024-01-24 14:42:52,0.0
4033,-507,-157,-93,-424,14,2024-01-24 14:42:52,0.0
4332,-193,-279,-12,-334,47,2024-01-24 14:42:52,0.0
3686,-548,-335,-206,-531,106,2024-01-24 14:42:53,0.0
3826,-382,-627,-70,-633,83,2024-01-24 14:42:53,0.0
3634,-738,-575,-45,-629,173,2024-01-24 14:42:53,0.0
2873,-344,-582,-180,-909,126,2024-01-24 14:42:53,0.0
3113,-235,-829,-377,-1190,245,2024-01-24 14:42:53,0.0
3777,-1038,-853,-45,-745,281,2024-01-24 14:42:53,0.0
4072,179,-1085,-198,-573,3,2024-01-24 14:42:53,0.0
4955,-1095,-1078,-423,-414,262,2024-01-24 14:42:53,0.0
4241,-800,-1396,212,-91,-79,2024-01-24 14:42:53,0.0
5121,-721,-1430,-49,202,-60,2024-01-24 14:42:53,0.0
4263,-595,-1213,70,104,-191,2024-01-24 14:42:53,0.0
4746,-401,-1909,-180,-282,2,2024-01-24 14:42:53,0.0
4579,-1022,-1337,-175,370,-136,2024-01-24 14:42:53,0.0
4656,-294,-1591,-161,149,-88,2024-01-24 14:42:53,0.0
4757,-829,-1541,-95,838,-133,2024-01-24 14:42:53,0.0
4703,-424,-1063,-24,694,-174,2024-01-24 14:42:53,0.0
4846,-366,-878,-48,1017,-312,2024-01-24 14:42:53,0.0
4732,-497,-434,83,741,-208,2024-01-24 14:42:53,0.0
4189,-68,-294,-41,925,-162,2024-01-24 14:42:54,0.0
4248,-145,274,-111,948,-92,2024-01-24 14:42:54,0.0
4264,-276,276,-82,780,-52,2024-01-24 14:42:54,0.0
4442,-288,396,25,443,-52,2024-01-24 14:42:54,0.0
4215,-43,677,75,652,-10,2024-01-24 14:42:54,0.0
4078,-220,902,-74,315,18,2024-01-24 14:42:54,0.0
4349,-166,1003,4,248,41,2024-01-24 14:42:54,0.0
4259,-205,971,-11,183,39,2024-01-24 14:42:54,0.0
4217,-185,795,-25,151,22,2024-01-24 14:42:54,0.0
4047,-200,865,26,181,54,2024-01-24 14:42:54,0.0
4244,-179,1112,-30,32,34,2024-01-24 14:42:54,0.0
4222,-227,1030,-83,-78,43,2024-01-24 14:42:54,0.0
4278,-271,933,-80,-92,45,2024-01-24 14:42:54,0.0
4282,-245,841,-28,-43,48,2024-01-24 14:42:54,0.0
4209,-242,790,-17,11,44,2024-01-24 14:42:54,0.0
4286,-277,874,-42,-144,38,2024-01-24 14:42:54,0.0
4288,-320,905,-31,-69,36,2024-01-24 14:42:54,0.0
4184,-222,955,-19,-16,31,2024-01-24 14:42:55,0.0
4261,-280,940,-20,-82,32,2024-01-24 14:42:55,0.0
4300,-302,818,-38,-157,22,2024-01-24 14:42:55,0.0
4274,-310,813,-55,-121,26,2024-01-24 14:42:55,0.0
4275,-294,775,-37,-58,38,2024-01-24 14:42:55,0.0
4271,-328,713,-9,-22,23,2024-01-24 14:42:55,0.0
4329,-286,735,-50,-126,2,2024-01-24 14:42:55,0.0
4190,-291,797,-80,-154,-13,2024-01-24 14:42:55,0.0
4116,-288,803,-69,-309,34,2024-01-24 14:42:55,0.0
4272,-352,635,-81,-290,47,2024-01-24 14:42:55,0.0
4171,-248,677,-49,-405,31,2024-01-24 14:42:55,0.0
4166,-386,623,-77,-486,64,2024-01-24 14:42:55,0.0
4261,-268,416,-62,-578,52,2024-01-24 14:42:55,0.0
4235,-449,69,-96,-571,89,2024-01-24 14:42:55,0.0
5182,-444,471,-96,-791,50,2024-01-24 14:42:55,0.0
4809,-44,564,-133,-718,81,2024-01-24 14:42:55,0.0
5054,-449,-439,-351,-1147,244,2024-01-24 14:42:55,0.0
4571,-730,-133,-84,-717,-41,2024-01-24 14:42:55,
5150,-338,-1681,-93,-1266,179,2024-01-24 14:42:56,0.0
5226,-778,-1611,-161,-286,-145,2024-01-24 14:42:56,0.0
4411,-691,-1266,96,-362,60,2024-01-24 14:42:56,0.0
4412,-328,-1299,24,-152,-98,2024-01-24 14:42:56,0.0
4505,-556,-1165,100,53,39,2024-01-24 14:42:56,0.0
4058,-427,-1110,6,243,-84,2024-01-24 14:42:56,0.0
3895,-362,-860,40,331,10,2024-01-24 14:42:56,0.0
4072,-577,-964,-10,559,-76,2024-01-24 14:42:56,0.0
3831,-243,-663,5,503,-61,2024-01-24 14:42:56,0.0
3770,-494,-516,-31,576,-51,2024-01-24 14:42:56,0.0
3823,-270,-481,-24,408,-66,2024-01-24 14:42:56,0.0
3943,-471,-490,-38,463,-47,2024-01-24 14:42:56,0.0
3767,-231,-391,30,453,-34,2024-01-24 14:42:56,0.0
3668,-383,-317,-18,381,-9,2024-01-24 14:42:56,0.0
3932,-258,-258,18,293,17,2024-01-24 14:42:56,0.0
4160,-281,-112,-69,262,34,2024-01-24 14:42:56,0.0
4183,-508,-194,-50,181,19,2024-01-24 14:42:56,0.0
4385,-294,-28,-48,216,47,2024-01-24 14:42:57,0.0
4325,-496,192,43,199,16,2024-01-24 14:42:57,0.0
4293,-292,169,55,163,21,2024-01-24 14:42:57,0.0
4405,-213,87,14,50,-10,2024-01-24 14:42:57,0.0
4286,-280,362,-38,130,33,2024-01-24 14:42:57,0.0
4277,-385,320,-58,-2,23,2024-01-24 14:42:57,0.0
4415,-446,323,-58,36,24,2024-01-24 14:42:57,0.0
4255,-421,393,-46,-20,-1,2024-01-24 14:42:57,0.0
4359,-341,294,-72,-73,-16,2024-01-24 14:42:57,0.0
4294,-426,299,-47,-24,12,2024-01-24 14:42:57,0.0
4297,-428,350,-19,-45,15,2024-01-24 14:42:57,0.0
4341,-393,338,-17,-96,8,2024-01-24 14:42:57,0.0
4361,-418,301,-18,-67,14,2024-01-24 14:42:57,0.0
4263,-369,260,-9,-49,10,2024-01-24 14:42:57,0.0
4349,-396,282,4,-5,21,2024-01-24 14:42:57,0.0
4274,-339,408,-14,-21,19,2024-01-24 14:42:57,0.0
4341,-398,381,17,-35,26,2024-01-24 14:42:57,0.0
4344,-350,287,19,-21,14,2024-01-24 14:42:58,0.0
4322,-389,332,-1,-37,12,2024-01-24 14:42:58,0.0
4334,-338,290,8,-5,12,2024-01-24 14:42:58,0.0
4339,-369,311,-30,25,10,2024-01-24 14:42:58,0.0
4380,-347,411,-65,15,6,2024-01-24 14:42:58,0.0
4303,-354,395,-67,4,-6,2024-01-24 14:42:58,0.0
4363,-389,390,-69,-5,-2,2024-01-24 14:42:58,0.0
4292,-414,372,-44,-32,3,2024-01-24 14:42:58,0.0
4356,-343,341,-45,-14,12,2024-01-24 14:42:58,0.0
4317,-375,329,-26,-10,12,2024-01-24 14:42:58,0.0
4254,-386,273,-11,-76,6,2024-01-24 14:42:58,0.0
4260,-364,269,2,-75,9,2024-01-24 14:42:58,0.0
4120,-374,121,13,-134,10,2024-01-24 14:42:58,0.0
4302,-388,39,-29,-193,22,2024-01-24 14:42:58,0.0
4058,-494,133,-42,-308,53,2024-01-24 14:42:58,0.0
3731,-93,-196,-9,-635,64,2024-01-24 14:42:58,0.0
3824,-392,-530,-186,-868,124,2024-01-24 14:42:58,0.0
3877,-395,-534,-172,-815,5,2024-01-24 14:42:58,0.0
3703,-590,-295,-176,-673,141,2024-01-24 14:42:59,0.0
3255,-504,-364,-80,-993,209,2024-01-24 14:42:59,0.0
4368,-498,-855,-33,-872,163,2024-01-24 14:42:59,0.0
3935,-600,-700,-49,-521,138,2024-01-24 14:42:59,0.0
3991,-442,-970,-20,-450,88,2024-01-24 14:42:59,0.0
4322,-515,-919,-132,-264,182,2024-01-24 14:42:59,0.0
4327,-814,-1199,-158,38,5,2024-01-24 14:42:59,0.0
4372,-611,-1501,-108,-540,90,2024-01-24 14:42:59,0.0
4713,-772,-1643,-123,-51,-34,2024-01-24 14:42:59,0.0
4126,-508,-1259,-24,45,-106,2024-01-24 14:42:59,0.0
4409,-638,-1368,-29,0,-43,2024-01-24 14:42:59,0.0
4820,-562,-1767,7,374,-71,2024-01-24 14:42:59,0.0
4367,-649,-1215,-53,420,-68,2024-01-24 14:42:59,0.0
4944,-594,-1610,-58,778,-99,2024-01-24 14:42:59,0.0
4995,-463,-1450,23,708,-137,2024-01-24 14:42:59,0.0
4200,-406,-560,55,1132,-278,2024-01-24 14:42:59,0.0
4445,-113,-245,103,699,-191,2024-01-24 14:42:59,0.0
4676,-286,-397,10,1032,-86,2024-01-24 14:43:00,0.0
4324,-443,247,-47,827,-150,2024-01-24 14:43:00,0.0
4172,-323,552,-21,756,-128,2024-01-24 14:43:00,0.0
4259,-204,744,-67,467,-33,2024-01-24 14:43:00,0.0
4092,-204,1101,-16,571,-22,2024-01-24 14:43:00,0.0
4233,-221,810,-62,311,-12,2024-01-24 14:43:00,0.0
4112,-196,1087,-40,286,-33,2024-01-24 14:43:00,0.0
4187,-309,894,-12,131,18,2024-01-24 14:43:00,0.0
4210,-80,1062,-48,147,-26,2024-01-24 14:43:00,0.0
4176,-280,1058,-33,145,21,2024-01-24 14:43:00,0.0
4192,-144,959,-32,39,-9,2024-01-24 14:43:00,0.0
4201,-213,1206,-62,46,12,2024-01-24 14:43:00,0.0
4161,-197,1096,-48,-53,29,2024-01-24 14:43:00,0.0
4223,-245,912,-73,-52,17,2024-01-24 14:43:00,0.0
4060,-157,1019,-62,-231,53,2024-01-24 14:43:00,0.0
4411,-252,1016,-128,-151,21,2024-01-24 14:43:00,0.0
4260,-413,875,-86,-59,2,2024-01-24 14:43:00,0.0
4316,-223,924,-92,23,3,2024-01-24 14:43:00,0.0
4194,-309,995,-54,63,-4,2024-01-24 14:43:01,0.0
4266,-169,954,-58,-1,10,2024-01-24 14:43:01,0.0
4213,-296,921,-52,-38,2,2024-01-24 14:43:01,0.0
4276,-242,977,-41,-34,16,2024-01-24 14:43:01,0.0
4256,-318,887,-53,51,11,2024-01-24 14:43:01,0.0
4175,-230,1004,-54,-3,15,2024-01-24 14:43:01,0.0
4280,-300,957,-22,-10,10,2024-01-24 14:43:01,0.0
4145,-196,1093,-35,-116,25,2024-01-24 14:43:01,0.0
4113,-253,1131,-39,-338,60,2024-01-24 14:43:01,0.0
4642,-282,611,85,-214,129,2024-01-24 14:43:01,0.0
4220,-314,576,-86,58,-49,2024-01-24 14:43:01,0.0
4027,-262,1125,-45,-4,53,2024-01-24 14:43:01,0.0
4432,-353,897,-76,-70,8,2024-01-24 14:43:01,
4170,-248,912,-55,-129,27,2024-01-24 14:43:01,0.0
4220,-306,989,-14,-109,42,2024-01-24 14:43:01,0.0
4310,-390,712,-66,-62,5,2024-01-24 14:43:01,0.0
4214,-318,786,-9,-82,31,2024-01-24 14:43:01,0.0
4265,-313,766,-67,-87,19,2024-01-24 14:43:02,0.0
4270,-360,729,-44,-93,28,2024-01-24 14:43:02,0.0
4216,-288,828,-56,-109,15,2024-01-24 14:43:02,0.0
4111,-390,660,-122,-416,-16,2024-01-24 14:43:02,0.0
3757,-554,667,23,-1041,31,2024-01-24 14:43:02,0.0
4657,-164,338,16,-793,3,2024-01-24 14:43:02,0.0
4146,-104,288,-4,-679,106,2024-01-24 14:43:02,0.0
4188,-264,376,-209,-568,62,2024-01-24 14:43:02,0.0
4455,-434,348,-19,-771,104,2024-01-24 14:43:02,0.0
5083,-297,-375,-26,-985,84,2024-01-24 14:43:02,0.0
5060,-432,-413,-53,-718,49,2024-01-24 14:43:02,0.0
4540,-524,-494,39,-917,141,2024-01-24 14:43:02,0.0
4814,-326,-1496,-67,-1159,153,2024-01-24 14:43:02,0.0
5177,-586,-1975,-107,-806,71,2024-01-24 14:43:02,0.0
4657,-510,-1787,-10,-457,131,2024-01-24 14:43:02,0.0
4602,-516,-1910,-142,-421,-17,2024-01-24 14:43:02,0.0
4216,-571,-1617,-57,-62,37,2024-01-24 14:43:02,0.0
3946,-415,-1477,-52,-73,-79,2024-01-24 14:43:02,0.0
4070,-484,-1421,-49,320,-69,2024-01-24 14:43:03,0.0
3714,-582,-1154,81,353,-87,2024-01-24 14:43:03,0.0
3871,-307,-1366,8,449,-132,2024-01-24 14:43:03,0.0
3623,-332,-1081,-10,576,-80,2024-01-24 14:43:03,0.0
3821,-497,-1217,-18,483,-92,2024-01-24 14:43:03,0.0
3630,-328,-950,-15,492,-55,2024-01-24 14:43:03,0.0
3733,-353,-995,17,464,4,2024-01-24 14:43:03,0.0
4119,-233,-797,-101,517,-13,2024-01-24 14:43:03,0.0
3928,-413,-751,-72,539,70,2024-01-24 14:43:03,0.0
4195,-202,-654,-79,295,-31,2024-01-24 14:43:03,0.0
3899,-381,-546,-153,493,7,2024-01-24 14:43:03,0.0
4005,-213,-451,-164,126,-25,2024-01-24 14:43:03,0.0
4420,-529,-549,-128,398,25,2024-01-24 14:43:03,0.0
3978,-360,-166,-77,46,-12,2024-01-24 14:43:03,0.0
4337,-433,-347,44,21,5,2024-01-24 14:43:03,0.0
4285,-332,-238,-22,42,12,2024-01-24 14:43:03,0.0
4331,-512,-112,64,112,12,2024-01-24 14:43:03,0.0
4191,-305,-27,107,5,-30,2024-01-24 14:43:04,0.0
4349,-289,-96,12,18,-3,2024-01-24 14:43:04,0.0
4355,-379,-74,28,-56,30,2024-01-24 14:43:04,0.0
4326,-345,-10,27,28,7,2024-01-24 14:43:04,0.0
4322,-283,-126,-23,-42,16,2024-01-24 14:43:04,0.0
4363,-328,16,-53,14,17,2024-01-24 14:43:04,0.0
4318,-436,-41,8,29,9,2024-01-24 14:43:04,0.0
4289,-363,-119,-14,54,36,2024-01-24 14:43:04,0.0
4203,-322,123,-5,-26,36,2024-01-24 14:43:04,0.0
4434,-394,-116,-17,-54,42,2024-01-24 14:43:04,0.0
4382,-319,17,-55,3,19,2024-01-24 14:43:04,0.0
4266,-371,11,-58,-101,21,2024-01-24 14:43:04,0.0
4369,-366,-98,-52,140,25,2024-01-24 14:43:04,0.0
4331,-329,133,-57,133,15,2024-01-24 14:43:04,0.0
4335,-427,130,-69,-18,-9,2024-01-24 14:43:04,0.0
4398,-320,19,-38,21,22,2024-01-24 14:43:04,0.0
4326,-399,71,-47,57,8,2024-01-24 14:43:04,0.0
4324,-378,186,-21,61,11,2024-01-24 14:43:04,0.0
4299,-376,31,-45,16,-10,2024-01-24 14:43:05,0.0
4234,-429,152,24,64,8,2024-01-24 14:43:05,0.0
4152,-233,50,-48,48,-6,2024-01-24 14:43:05,0.0
4126,-413,84,-82,-25,40,2024-01-24 14:43:05,0.0
4174,-229,-126,-90,-193,5,2024-01-24 14:43:05,0.0
4009,-502,-79,-147,-499,78,2024-01-24 14:43:05,0.0
3756,-324,-198,-160,-493,30,2024-01-24 14:43:05,0.0
3345,-551,-176,-267,-721,116,2024-01-24 14:43:05,0.0
2675,-193,-619,-423,-885,128,2024-01-24 14:43:05,0.0
3844,-579,-562,-199,-1123,319,2024-01-24 14:43:05,0.0
3969,-736,-896,-59,-985,216,2024-01-24 14:43:05,0.0
4679,-471,-770,-10,-614,226,2024-01-24 14:43:05,0.0
4579,-613,-974,-173,-527,7,2024-01-24 14:43:05,0.0
4163,-720,-1023,-5,-356,18,2024-01-24 14:43:05,0.0
4463,-194,-1213,-193,-342,-73,2024-01-24 14:43:05,0.0
4633,-1096,-1650,-64,-46,72,2024-01-24 14:43:05,0.0
4305,-659,-1498,128,-40,-77,2024-01-24 14:43:05,0.0
4361,-288,-1714,-62,27,-4,2024-01-24 14:43:06,0.0
4119,-925,-1142,-78,176,-119,2024-01-24 14:43:06,0.0
4892,-370,-1608,-72,-3,-125,2024-01-24 14:43:06,0.0
4474,-651,-1584,27,577,-79,2024-01-24 14:43:06,0.0
4328,-498,-1240,-44,354,-156,2024-01-24 14:43:06,0.0
5008,-497,-1572,31,590,-137,2024-01-24 14:43:06,0.0
4223,-522,-701,26,1016,-135,2024-01-24 14:43:06,0.0
4597,-582,-479,41,648,-80,2024-01-24 14:43:06,0.0
4688,-362,-518,115,913,-92,2024-01-24 14:43:06,0.0
4356,-373,-11,29,909,-30,2024-01-24 14:43:06,0.0
4226,-188,385,11,731,-100,2024-01-24 14:43:06,0.0
4200,-258,437,-70,346,-76,2024-01-24 14:43:06,0.0
4377,-333,557,35,530,-83,2024-01-24 14:43:06,0.0
4117,-245,833,-21,412,-75,2024-01-24 14:43:06,0.0
4331,-351,707,-4,414,-46,2024-01-24 14:43:06,0.0
4074,-224,913,72,328,-15,2024-01-24 14:43:06,0.0
4117,-60,808,-57,82,-35,2024-01-24 14:43:06,0.0
4177,-242,949,37,58,32,2024-01-24 14:43:06,0.0
4181,-31,889,-18,-73,51,2024-01-24 14:43:07,0.0
4258,-292,1024,-56,-117,38,2024-01-24 14:43:07,0.0
4103,-266,656,-53,-335,61,2024-01-24 14:43:07,0.0
4439,-317,844,-12,-116,35,2024-01-24 14:43:07,0.0
4046,-148,976,26,-125,24,2024-01-24 14:43:07,0.0
4423,-159,713,-20,-120,61,2024-01-24 14:43:07,0.0
4309,-322,697,-69,-161,19,2024-01-24 14:43:07,0.0
4274,-378,475,-64,-210,18,2024-01-24 14:43:07,
4395,-296,510,-73,-159,16,2024-01-24 14:43:07,0.0
4274,-284,493,-87,-119,-1,2024-01-24 14:43:07,0.0
4308,-280,574,-46,-118,28,2024-01-24 14:43:07,0.0
4380,-262,532,-29,-3,-6,2024-01-24 14:43:07,0.0
4320,-321,504,-34,-38,34,2024-01-24 14:43:07,0.0
4312,-335,528,-62,-7,-9,2024-01-24 14:43:07,0.0
4337,-272,492,-16,-3,37,2024-01-24 14:43:07,0.0
4260,-256,579,-31,52,-3,2024-01-24 14:43:07,0.0
4312,-321,618,-52,14,14,2024-01-24 14:43:07,0.0
4332,-307,628,-47,39,13,2024-01-24 14:43:08,0.0
4233,-248,682,-80,-117,-6,2024-01-24 14:43:08,0.0
4226,-296,577,-99,-131,23,2024-01-24 14:43:08,0.0
4210,-273,678,-75,-282,33,2024-01-24 14:43:08,0.0
4105,-258,683,-98,-527,65,2024-01-24 14:43:08,0.0
4154,-381,433,-134,-691,74,2024-01-24 14:43:08,0.0
4056,-323,276,-34,-1052,86,2024-01-24 14:43:08,0.0
4485,-413,-32,-138,-1423,81,2024-01-24 14:43:08,0.0
5081,-407,-173,0,-794,118,2024-01-24 14:43:08,0.0
5040,-190,-675,-125,-1101,86,2024-01-24 14:43:08,0.0
5080,-885,-1146,-223,-909,72,2024-01-24 14:43:08,0.0
4648,-194,-1554,-107,-1013,6,2024-01-24 14:43:08,0.0
5079,-711,-1836,52,-798,132,2024-01-24 14:43:08,0.0
4680,-416,-2021,64,-237,95,2024-01-24 14:43:08,0.0
4218,-599,-1719,18,-335,11,2024-01-24 14:43:08,0.0
4220,-467,-1650,-18,-192,-27,2024-01-24 14:43:08,0.0
4080,-428,-1709,19,82,-38,2024-01-24 14:43:08,0.0
3812,-516,-1515,20,144,-32,2024-01-24 14:43:09,0.0
3871,-430,-1504,81,402,-47,2024-01-24 14:43:09,0.0
3673,-399,-1409,40,339,-39,2024-01-24 14:43:09,0.0
3938,-299,-1397,38,570,-49,2024-01-24 14:43:09,0.0
3643,-367,-1119,-13,634,-50,2024-01-24 14:43:09,0.0
3796,-387,-1113,-33,644,-39,2024-01-24 14:43:09,0.0
3925,-379,-859,-40,724,-11,2024-01-24 14:43:09,0.0
3819,-427,-694,-50,688,-27,2024-01-24 14:43:09,0.0
3869,-394,-638,-73,641,-76,2024-01-24 14:43:09,0.0
3797,-399,-354,-65,583,-56,2024-01-24 14:43:09,0.0
4183,-345,-394,-36,548,-58,2024-01-24 14:43:09,0.0
3995,-461,-366,30,401,4,2024-01-24 14:43:09,0.0
4212,-283,-102,31,361,-16,2024-01-24 14:43:09,0.0
4233,-287,-28,-26,288,-5,2024-01-24 14:43:09,0.0
4287,-251,206,-105,194,-30,2024-01-24 14:43:09,0.0
4296,-323,92,-127,133,-16,2024-01-24 14:43:09,0.0
4313,-352,207,-80,124,-9,2024-01-24 14:43:09,0.0
4270,-337,223,-45,59,0,2024-01-24 14:43:09,0.0
4361,-418,218,-6,58,36,2024-01-24 14:43:10,0.0
4279,-305,304,1,-6,8,2024-01-24 14:43:10,0.0
4380,-384,332,24,-9,44,2024-01-24 14:43:10,0.0
4293,-340,390,17,-1,24,2024-01-24 14:43:10,0.0
4376,-340,305,-12,-14,28,2024-01-24 14:43:10,0.0
4284,-357,397,0,-22,21,2024-01-24 14:43:10,0.0
4380,-303,382,-28,37,21,2024-01-24 14:43:10,0.0
4263,-345,397,-36,-11,18,2024-01-24 14:43:10,0.0
4399,-377,378,-39,-23,10,2024-01-24 14:43:10,0.0
4332,-327,363,-37,-43,5,2024-01-24 14:43:10,0.0
4355,-348,403,-38,-15,8,2024-01-24 14:43:10,0.0
4383,-324,340,-64,-41,-4,2024-01-24 14:43:10,0.0
4324,-362,311,-25,-72,16,2024-01-24 14:43:10,0.0
4315,-342,292,-58,-96,15,2024-01-24 14:43:10,0.0
4273,-319,207,-47,-240,18,2024-01-24 14:43:10,0.0
4358,-379,211,-27,-124,22,2024-01-24 14:43:10,0.0
4284,-368,208,-14,-157,7,2024-01-24 14:43:10,0.0
4286,-336,76,-3,-203,26,2024-01-24 14:43:10,0.0
4170,-366,31,10,-318,39,2024-01-24 14:43:11,0.0
4172,-345,-13,-75,-381,85,2024-01-24 14:43:11,0.0
4418,-315,313,-49,-196,68,2024-01-24 14:43:11,0.0
4657,-408,1,-35,169,64,2024-01-24 14:43:11,0.0
4365,-440,366,-30,157,51,2024-01-24 14:43:11,0.0
4032,-401,121,59,75,16,2024-01-24 14:43:11,0.0
4233,-309,197,5,-109,80,2024-01-24 14:43:11,0.0
3818,-500,-104,-12,-122,72,2024-01-24 14:43:11,0.0
4053,-541,-53,-61,-341,68,2024-01-24 14:43:11,0.0
3436,-453,-23,-106,-449,87,2024-01-24 14:43:11,0.0
3458,-177,-234,-227,-818,93,2024-01-24 14:43:11,0.0
3547,-829,-656,-238,-1014,267,2024-01-24 14:43:11,0.0
3869,-342,-954,-176,-797,163,2024-01-24 14:43:11,0.0
3680,-821,-993,-112,-743,251,2024-01-24 14:43:11,0.0
4046,-348,-943,-83,-770,-30,2024-01-24 14:43:11,0.0
4832,-567,-1250,-286,-404,118,2024-01-24 14:43:11,0.0
4239,-602,-874,-174,-214,-62,2024-01-24 14:43:11,0.0
4195,-777,-1282,-173,-148,-11,2024-01-24 14:43:12,0.0
5176,-764,-1425,-87,-333,16,2024-01-24 14:43:12,0.0
4025,-690,-1143,-3,374,-70,2024-01-24 14:43:12,0.0
4627,-719,-1405,-18,23,-55,2024-01-24 14:43:12,0.0
4882,-469,-1450,-54,556,-121,2024-01-24 14:43:12,0.0
4312,-664,-1083,-39,565,-7,2024-01-24 14:43:12,0.0
5749,-572,-1547,-75,548,-200,2024-01-24 14:43:12,0.0
4827,-282,-1001,-57,887,-184,2024-01-24 14:43:12,0.0
3751,-394,244,-29,972,-207,2024-01-24 14:43:12,0.0
4891,-386,-403,-3,800,-112,2024-01-24 14:43:12,0.0
4229,-510,79,-16,970,-51,2024-01-24 14:43:12,0.0
4461,-231,328,-38,709,-89,2024-01-24 14:43:12,0.0
4150,-422,803,22,654,-13,2024-01-24 14:43:12,0.0
4017,-240,908,49,401,-8,2024-01-24 14:43:12,0.0
4494,-234,774,46,356,11,2024-01-24 14:43:12,0.0
4091,-208,1007,4,326,46,2024-01-24 14:43:12,0.0
4065,-448,840,17,171,2,2024-01-24 14:43:12,0.0
4179,-163,1012,11,-29,-12,2024-01-24 14:43:13,0.0
4305,-236,1044,-35,107,-12,2024-01-24 14:43:13,0.0
4080,-234,1217,-29,-34,0,2024-01-24 14:43:13,0.0
4215,-246,963,-22,-89,14,2024-01-24 14:43:13,
