acceleration_x,acceleration_y,acceleration_z,gyroscope_x,gyroscope_y,gyroscope_z,timestamp,label
4194,-453,-389,-54,-309,39,2024-01-24 14:44:00,0.0
3855,-208,-733,-240,-914,86,2024-01-24 14:44:00,0.0
3994,-489,-937,-321,-653,129,2024-01-24 14:44:00,0.0
2817,-492,-973,-243,-1331,238,2024-01-24 14:44:00,0.0
2904,-753,-956,-90,-1349,268,2024-01-24 14:44:00,0.0
3759,-490,-1167,59,-1211,46,2024-01-24 14:44:01,0.0
3452,66,-1141,-355,-1655,54,2024-01-24 14:44:01,0.0
3489,-1056,-1438,-176,-1381,77,2024-01-24 14:44:01,0.0
3813,-417,-2129,-125,-937,-82,2024-01-24 14:44:01,0.0
3788,-589,-2143,-358,-950,-294,2024-01-24 14:44:01,0.0
3888,-672,-2692,-84,-635,-8,2024-01-24 14:44:01,0.0
3528,-639,-3048,-58,-978,-109,2024-01-24 14:44:01,0.0
3667,-357,-2842,-88,-615,42,2024-01-24 14:44:01,0.0
3056,-782,-3085,388,3321,62,2024-01-24 14:44:01,0.0
4785,-405,-2673,-26,1104,-38,2024-01-24 14:44:01,0.0
4691,-545,-2019,51,998,16,2024-01-24 14:44:01,0.0
5144,-815,-2440,50,1149,21,2024-01-24 14:44:01,0.0
5570,-320,-2280,-62,1084,-146,2024-01-24 14:44:01,0.0
4161,-534,-1145,48,1479,115,2024-01-24 14:44:01,0.0
3871,-405,-346,-100,1582,-116,2024-01-24 14:44:02,0.0
3879,-757,-182,81,1199,-114,2024-01-24 14:44:04,0.0
4725,-581,-448,72,770,-238,2024-01-24 14:44:04,0.0
4140,-158,144,42,823,-191,2024-01-24 14:44:04,0.0
3985,-58,1130,75,346,-112,2024-01-24 14:44:04,0.0
4352,-155,867,129,313,-160,2024-01-24 14:44:04,0.0
4368,-43,874,121,355,-129,2024-01-24 14:44:04,0.0
4453,-77,696,-22,336,1,2024-01-24 14:44:04,0.0
4127,8,767,34,204,-63,2024-01-24 14:44:04,0.0
4248,-153,914,79,43,-66,2024-01-24 14:44:04,0.0
4256,-782,271,-139,-16,-1,2024-01-24 14:44:04,0.0
4296,-427,51,-84,-220,23,2024-01-24 14:44:04,0.0
4409,-535,-9,-95,-36,18,2024-01-24 14:44:04,0.0
4328,-421,-26,-104,-107,11,2024-01-24 14:44:04,0.0
4433,-650,-204,-40,0,-4,2024-01-24 14:44:04,0.0
4212,-478,-364,-51,-66,-9,2024-01-24 14:44:04,0.0
4218,-530,-575,-44,-157,-16,2024-01-24 14:44:05,0.0
3963,-415,-560,-85,-241,16,2024-01-24 14:44:05,0.0
3702,-356,-380,-143,-422,99,2024-01-24 14:44:05,0.0
3532,-367,-381,-235,-864,151,2024-01-24 14:44:05,0.0
3609,-683,-772,-231,-1051,138,2024-01-24 14:44:05,0.0
4144,-501,-700,-184,-1063,183,2024-01-24 14:44:05,0.0
3801,-645,-793,-16,-1066,179,2024-01-24 14:44:05,0.0
3969,-786,-1121,-21,-1136,140,2024-01-24 14:44:05,0.0
4165,-174,-1409,-69,-925,-20,2024-01-24 14:44:05,0.0
3845,-526,-1417,-140,-796,48,2024-01-24 14:44:05,0.0
3651,-692,-1669,-98,-483,-10,2024-01-24 14:44:05,0.0
3635,-589,-1372,43,-40,-17,2024-01-24 14:44:05,0.0
3770,-503,-2029,34,296,69,2024-01-24 14:44:05,0.0
4260,-468,-1834,-96,521,-173,2024-01-24 14:44:05,0.0
3775,-694,-1607,-128,310,-69,2024-01-24 14:44:05,0.0
4426,-590,-1870,-39,282,-174,2024-01-24 14:44:05,0.0
4294,-566,-1503,-3,836,16,2024-01-24 14:44:05,0.0
4440,-628,-1901,-15,673,-81,2024-01-24 14:44:05,0.0
4239,-587,-1126,-3,319,-9,2024-01-24 14:44:06,0.0
4478,-503,-1475,7,301,58,2024-01-24 14:44:06,0.0
4742,-698,-1171,-14,490,-11,2024-01-24 14:44:06,0.0
4798,-606,-1055,23,796,-30,2024-01-24 14:44:06,0.0
5502,-736,-1054,96,960,-106,2024-01-24 14:44:06,0.0
4789,-519,-143,117,920,-140,2024-01-24 14:44:06,0.0
4417,-521,-11,68,878,-161,2024-01-24 14:44:06,0.0
4058,-386,370,47,757,-190,2024-01-24 14:44:06,0.0
4338,-488,337,35,713,-161,2024-01-24 14:44:06,0.0
4292,-360,446,56,524,-125,2024-01-24 14:44:10,0.0
4220,-128,701,74,376,-70,2024-01-24 14:44:10,0.0
3947,-94,913,109,272,-94,2024-01-24 14:44:10,0.0
4488,63,790,86,480,-98,2024-01-24 14:44:10,0.0
4123,33,1124,42,280,-25,2024-01-24 14:44:10,0.0
4309,-134,963,24,303,-1,2024-01-24 14:44:10,0.0
4671,-182,539,-200,555,-97,2024-01-24 14:44:10,0.0
3412,-106,1755,2,414,-14,2024-01-24 14:44:10,0.0
4210,-125,1362,-44,103,-24,2024-01-24 14:44:10,0.0
3561,-445,-867,-46,201,9,2024-01-24 14:44:11,0.0
4482,-166,-1143,-79,284,70,2024-01-24 14:44:11,0.0
4459,-891,-1404,-284,448,-114,2024-01-24 14:44:11,0.0
4133,-617,-1337,-31,604,-14,2024-01-24 14:44:11,0.0
4356,-592,-1037,-129,452,9,2024-01-24 14:44:11,0.0
4361,-667,-1138,16,486,52,2024-01-24 14:44:11,0.0
4468,-731,-926,73,478,98,2024-01-24 14:44:11,0.0
4711,-670,-810,133,543,181,2024-01-24 14:44:11,0.0
4911,-807,-928,44,518,146,2024-01-24 14:44:11,0.0
5413,-849,-629,104,777,-28,2024-01-24 14:44:11,0.0
5128,-911,-281,146,865,-172,2024-01-24 14:44:11,0.0
4818,-813,493,56,1281,-152,2024-01-24 14:44:11,0.0
4042,-761,747,130,714,-127,2024-01-24 14:44:11,0.0
4172,-572,642,87,892,-204,2024-01-24 14:44:12,0.0
3885,-313,1257,150,732,-97,2024-01-24 14:44:14,0.0
4264,-394,841,201,347,-94,2024-01-24 14:44:14,0.0
3961,-207,1553,85,282,-82,2024-01-24 14:44:14,0.0
4248,-170,1212,16,178,-41,2024-01-24 14:44:14,0.0
4241,-324,1242,-41,-94,-17,2024-01-24 14:44:14,0.0
4124,-226,1248,-23,-50,-27,2024-01-24 14:44:14,0.0
4175,-234,1250,-47,-69,-18,2024-01-24 14:44:14,0.0
4181,-264,1220,-33,-36,8,2024-01-24 14:44:14,0.0
4140,-242,1216,-36,-45,13,2024-01-24 14:44:14,0.0
4149,-558,-189,-167,311,-49,2024-01-24 14:44:14,0.0
4608,-450,-308,-153,88,-21,2024-01-24 14:44:14,0.0
4368,-638,0,32,309,30,2024-01-24 14:44:14,0.0
4067,-37,350,-119,105,-43,2024-01-24 14:44:14,0.0
4420,-623,301,-134,-166,61,2024-01-24 14:44:14,0.0
4307,-457,48,-33,-118,17,2024-01-24 14:44:15,
4410,-443,80,-52,-54,17,2024-01-24 14:44:15,0.0
4363,-357,111,-96,22,1,2024-01-24 14:44:15,0.0
4292,-598,91,-92,-52,19,2024-01-24 14:44:15,0.0
4364,-438,-36,-67,1,16,2024-01-24 14:44:15,0.0
4318,-518,-11,-66,-55,32,2024-01-24 14:44:15,0.0
4337,-472,19,-70,-32,12,2024-01-24 14:44:15,0.0
4337,-528,-9,-51,-24,6,2024-01-24 14:44:15,0.0
4359,-504,-20,-46,-21,20,2024-01-24 14:44:15,0.0
4292,-486,-8,-60,-18,1,2024-01-24 14:44:15,0.0
4299,-489,-47,-64,-57,26,2024-01-24 14:44:15,0.0
4321,-551,-106,-40,-7,7,2024-01-24 14:44:15,0.0
4277,-485,-106,-29,-44,39,2024-01-24 14:44:15,0.0
4194,-478,-101,-46,-99,46,2024-01-24 14:44:15,0.0
3919,-426,32,-91,-348,73,2024-01-24 14:44:15,0.0
4103,-573,-342,-153,-635,135,2024-01-24 14:44:15,0.0
3968,-545,-379,-113,-664,122,2024-01-24 14:44:15,0.0
3623,-456,-501,-191,-915,203,2024-01-24 14:44:15,0.0
3928,-583,-679,-201,-868,144,2024-01-24 14:44:16,0.0
3639,-470,-881,-189,-1043,96,2024-01-24 14:44:16,0.0
3623,-477,-1016,-171,-857,66,2024-01-24 14:44:16,0.0
3866,-680,-1264,-208,-872,35,2024-01-24 14:44:16,0.0
3775,-936,-1170,-51,-437,35,2024-01-24 14:44:16,0.0
3912,-608,-1287,97,40,140,2024-01-24 14:44:16,0.0
4100,-616,-1424,-120,-15,108,2024-01-24 14:44:16,0.0
4081,-717,-1204,-72,605,-81,2024-01-24 14:44:16,0.0
4511,-529,-1287,-143,386,-103,2024-01-24 14:44:16,0.0
4314,-869,-1323,-95,580,-143,2024-01-24 14:44:16,0.0
4464,-494,-1193,9,289,8,2024-01-24 14:44:16,0.0
4257,-861,-1108,-1,275,-43,2024-01-24 14:44:16,0.0
4483,-611,-1144,107,321,-3,2024-01-24 14:44:16,0.0
4337,-404,-1056,-4,343,-81,2024-01-24 14:44:16,0.0
4542,-648,-758,-81,277,-20,2024-01-24 14:44:16,0.0
4555,-638,-881,-2,477,37,2024-01-24 14:44:16,0.0
4744,-824,-713,-13,620,68,2024-01-24 14:44:16,0.0
5161,-738,-706,68,651,-37,2024-01-24 14:44:17,0.0
4994,-528,-280,77,849,-159,2024-01-24 14:44:17,0.0
4718,-590,174,104,900,-222,2024-01-24 14:44:17,0.0
4332,-472,571,111,984,-230,2024-01-24 14:44:17,0.0
4068,-442,643,95,705,-105,2024-01-24 14:44:17,0.0
4250,-414,865,125,702,-147,2024-01-24 14:44:17,0.0
4066,-246,1093,134,526,-90,2024-01-24 14:44:17,0.0
4185,-185,1190,101,405,-159,2024-01-24 14:44:17,0.0
4075,-184,1320,33,358,-126,2024-01-24 14:44:17,0.0
4079,-4,1328,25,313,-68,2024-01-24 14:44:17,0.0
4179,-60,1416,-26,299,-54,2024-01-24 14:44:17,0.0
4100,-112,1361,-59,229,-16,2024-01-24 14:44:17,0.0
4014,-131,1486,-40,201,-25,2024-01-24 14:44:17,0.0
4041,-142,1558,-41,148,-31,2024-01-24 14:44:17,0.0
3965,-106,1681,-43,112,13,2024-01-24 14:44:17,0.0
3971,-204,1665,-39,90,8,2024-01-24 14:44:17,0.0
3951,-248,1555,-13,5,44,2024-01-24 14:44:17,0.0
4109,-215,1601,-37,-4,13,2024-01-24 14:44:17,0.0
4066,-196,1585,-52,12,0,2024-01-24 14:44:18,0.0
3948,-158,1675,-62,-84,-15,2024-01-24 14:44:18,0.0
4035,-112,1640,-55,-65,37,2024-01-24 14:44:18,0.0
3950,-165,1597,-33,-58,4,2024-01-24 14:44:18,0.0
4047,-162,1610,-27,-73,20,2024-01-24 14:44:18,0.0
3982,-178,1551,-27,-162,31,2024-01-24 14:44:18,0.0
4113,-157,1517,-52,-122,18,2024-01-24 14:44:18,0.0
4045,-218,1593,-37,-100,13,2024-01-24 14:44:18,0.0
4129,-172,1446,-43,-107,10,2024-01-24 14:44:18,0.0
4049,-173,1498,-57,-103,25,2024-01-24 14:44:18,0.0
4101,-204,1396,-37,-131,30,2024-01-24 14:44:18,0.0
4136,-185,1384,-46,-76,24,2024-01-24 14:44:18,0.0
4117,-170,1372,-23,-7,20,2024-01-24 14:44:18,0.0
4097,-180,1321,-30,35,24,2024-01-24 14:44:18,0.0
3956,-159,1415,-1,92,21,2024-01-24 14:44:18,0.0
3900,-250,1689,11,-68,-41,2024-01-24 14:44:18,0.0
3850,-85,1717,-60,-276,23,2024-01-24 14:44:18,0.0
3898,-108,1530,-86,-424,106,2024-01-24 14:44:18,0.0
3674,-49,1726,-166,-478,129,2024-01-24 14:44:19,0.0
3986,-266,1455,-128,-1315,191,2024-01-24 14:44:19,0.0
4288,-104,1093,-292,-1733,183,2024-01-24 14:44:19,0.0
4837,-518,684,-248,-1815,314,2024-01-24 14:44:19,0.0
5193,-515,-601,-170,-1731,357,2024-01-24 14:44:19,0.0
5125,-671,-912,-109,-1361,268,2024-01-24 14:44:19,0.0
4699,-654,-842,-22,-1010,248,2024-01-24 14:44:19,0.0
4397,-916,-1085,-36,-882,353,2024-01-24 14:44:19,0.0
4759,-954,-1598,-61,-589,152,2024-01-24 14:44:19,0.0
4554,-677,-1628,-30,-516,98,2024-01-24 14:44:19,0.0
5054,-866,-1750,-112,-116,-10,2024-01-24 14:44:19,0.0
4724,-801,-1815,-77,193,-67,2024-01-24 14:44:19,0.0
4019,-750,-1332,-5,400,-25,2024-01-24 14:44:19,0.0
3595,-796,-1160,102,22,21,2024-01-24 14:44:19,0.0
4139,-607,-1409,-10,-130,-107,2024-01-24 14:44:19,0.0
4099,-460,-1494,60,428,-157,2024-01-24 14:44:19,0.0
3778,-578,-1216,73,668,-88,2024-01-24 14:44:19,0.0
3611,-481,-986,147,858,-135,2024-01-24 14:44:20,0.0
3748,-506,-634,54,966,-179,2024-01-24 14:44:20,0.0
4024,-557,-715,32,873,-102,2024-01-24 14:44:20,0.0
3755,-549,-616,4,1002,-179,2024-01-24 14:44:20,0.0
3360,-350,-380,-8,846,-167,2024-01-24 14:44:20,0.0
3552,-532,-195,-76,543,-99,2024-01-24 14:44:20,0.0
4031,-479,167,-31,397,17,2024-01-24 14:44:20,0.0
3991,-329,270,-73,104,-40,2024-01-24 14:44:20,0.0
3865,-656,393,-108,-298,52,2024-01-24 14:44:20,0.0
4480,-490,72,-47,-467,41,2024-01-24 14:44:20,0.0
5051,-540,-402,-52,122,12,2024-01-24 14:44:20,0.0
4098,-630,371,-16,304,-50,2024-01-24 14:44:20,0.0
4113,-276,760,-65,68,5,2024-01-24 14:44:20,
4073,-548,411,-87,-285,5,2024-01-24 14:44:20,0.0
4773,-570,141,-39,-141,-49,2024-01-24 14:44:20,0.0
4035,-528,190,-21,-49,5,2024-01-24 14:44:20,0.0
4534,-349,358,-16,5,-13,2024-01-24 14:44:20,0.0
4051,-389,311,-67,-30,-3,2024-01-24 14:44:21,0.0
4491,-335,228,-77,-170,-4,2024-01-24 14:44:21,0.0
4340,-562,291,-51,35,-16,2024-01-24 14:44:21,0.0
4325,-407,367,-22,-35,8,2024-01-24 14:44:21,0.0
4244,-340,333,-21,-32,6,2024-01-24 14:44:21,0.0
4389,-395,302,-54,-77,18,2024-01-24 14:44:21,0.0
4342,-448,251,-24,-113,9,2024-01-24 14:44:21,0.0
4396,-562,67,21,64,39,2024-01-24 14:44:21,0.0
4204,-349,257,48,-1,14,2024-01-24 14:44:22,0.0
4388,-437,245,-3,-85,39,2024-01-24 14:44:22,0.0
4201,-338,-45,91,-46,-7,2024-01-24 14:44:22,0.0
4328,-459,-100,-69,-92,61,2024-01-24 14:44:22,0.0
4290,-443,179,-83,142,14,2024-01-24 14:44:22,0.0
3916,-402,156,-163,-247,74,2024-01-24 14:44:22,0.0
4443,-465,-142,-167,-247,106,2024-01-24 14:44:22,0.0
3753,-280,-1,-241,-207,117,2024-01-24 14:44:22,0.0
3145,-472,-106,-282,-725,232,2024-01-24 14:44:22,0.0
4688,-416,67,143,705,-103,2024-01-24 14:44:22,0.0
4207,-723,394,151,944,-199,2024-01-24 14:44:22,0.0
4235,-437,510,188,765,-141,2024-01-24 14:44:22,0.0
4407,-612,539,178,774,-177,2024-01-24 14:44:23,0.0
4197,-433,870,53,555,-132,2024-01-24 14:44:23,0.0
4149,-231,855,67,411,-81,2024-01-24 14:44:23,0.0
4257,-355,963,82,356,-67,2024-01-24 14:44:23,0.0
4097,-275,1048,94,291,-63,2024-01-24 14:44:23,0.0
4159,-336,1170,35,225,-28,2024-01-24 14:44:23,0.0
4139,-150,1278,9,171,-13,2024-01-24 14:44:23,0.0
4099,-144,1355,-70,133,-7,2024-01-24 14:44:23,0.0
4130,-325,1275,-95,48,-20,2024-01-24 14:44:23,0.0
4105,-308,1226,-89,59,-15,2024-01-24 14:44:23,0.0
4119,-374,1280,-47,22,37,2024-01-24 14:44:23,0.0
4165,-356,1387,-31,0,27,2024-01-24 14:44:23,0.0
4082,-355,1376,-29,2,33,2024-01-24 14:44:23,0.0
4161,-388,1295,-18,-25,41,2024-01-24 14:44:23,0.0
4153,-358,1259,-41,-80,22,2024-01-24 14:44:23,0.0
4187,-289,1233,-48,-63,35,2024-01-24 14:44:23,0.0
4108,-362,1299,-60,-47,-5,2024-01-24 14:44:23,0.0
4128,-464,1359,-5,-41,13,2024-01-24 14:44:24,0.0
4126,-316,1239,-21,-56,22,2024-01-24 14:44:24,0.0
4179,-334,1210,-49,-65,8,2024-01-24 14:44:24,0.0
4161,-288,1259,-37,-18,-4,2024-01-24 14:44:24,0.0
4130,-421,1264,-48,-44,-3,2024-01-24 14:44:24,0.0
4163,-350,1266,-13,-39,17,2024-01-24 14:44:24,0.0
4154,-319,1230,-37,-34,-10,2024-01-24 14:44:24,0.0
4129,-337,1260,-27,-28,3,2024-01-24 14:44:24,0.0
4054,-281,1335,-44,-110,33,2024-01-24 14:44:24,0.0
4162,-353,1281,-50,-115,7,2024-01-24 14:44:24,0.0
4030,-282,1237,-35,-119,22,2024-01-24 14:44:24,0.0
4110,-408,1023,-49,-163,-13,2024-01-24 14:44:24,0.0
3945,-295,1230,-64,-226,40,2024-01-24 14:44:24,0.0
3939,-264,1246,-108,-393,65,2024-01-24 14:44:24,0.0
4049,-181,1453,-157,-614,122,2024-01-24 14:44:24,0.0
3860,25,1534,-248,-931,239,2024-01-24 14:44:24,0.0
4507,-497,970,-222,-1663,269,2024-01-24 14:44:24,0.0
4941,-690,19,-230,-1808,162,2024-01-24 14:44:24,0.0
5237,-780,-1027,-141,-1715,268,2024-01-24 14:44:25,0.0
4843,-896,-1211,-112,-1124,181,2024-01-24 14:44:25,0.0
4307,-846,-1219,-62,-1023,215,2024-01-24 14:44:25,0.0
4551,-1041,-1602,63,-916,313,2024-01-24 14:44:25,0.0
4442,-844,-1662,-14,-666,220,2024-01-24 14:44:25,0.0
4672,-954,-1822,-33,-385,140,2024-01-24 14:44:25,0.0
4849,-1121,-2462,-34,-397,123,2024-01-24 14:44:25,0.0
4710,-831,-1900,-44,80,-77,2024-01-24 14:44:25,0.0
3954,-869,-1500,-94,6,-89,2024-01-24 14:44:25,0.0
3786,-1008,-1463,-32,206,-145,2024-01-24 14:44:25,0.0
3623,-860,-1525,85,504,-175,2024-01-24 14:44:25,0.0
3153,-831,-1351,198,568,-175,2024-01-24 14:44:25,0.0
3547,-484,-1439,176,560,-76,2024-01-24 14:44:25,0.0
4048,-657,-1318,129,625,-64,2024-01-24 14:44:25,0.0
3920,-602,-1211,67,976,-176,2024-01-24 14:44:25,0.0
3351,-665,-963,68,1093,-50,2024-01-24 14:44:25,0.0
3145,-785,-488,77,759,-97,2024-01-24 14:44:25,0.0
4353,-637,-362,16,734,-187,2024-01-24 14:44:25,0.0
3846,-647,-267,-60,731,-177,2024-01-24 14:44:26,0.0
3827,-504,103,90,432,-78,2024-01-24 14:44:26,0.0
4060,-369,197,-22,61,-85,2024-01-24 14:44:26,0.0
4165,-647,-1,-92,145,-64,2024-01-24 14:44:26,0.0
4389,-406,-100,-130,95,-15,2024-01-24 14:44:26,0.0
4460,-775,230,-58,156,-6,2024-01-24 14:44:26,0.0
4097,-389,518,-29,49,-27,2024-01-24 14:44:26,0.0
4303,-380,444,-96,-26,3,2024-01-24 14:44:26,0.0
4296,-645,412,-104,-64,21,2024-01-24 14:44:26,0.0
4348,-597,309,-31,-92,-4,2024-01-24 14:44:26,0.0
4311,-483,361,-41,-6,10,2024-01-24 14:44:26,0.0
4331,-547,420,-18,6,18,2024-01-24 14:44:26,0.0
4227,-512,405,-51,-34,11,2024-01-24 14:44:26,0.0
4353,-550,402,-76,-96,17,2024-01-24 14:44:26,0.0
4325,-562,315,-74,-30,16,2024-01-24 14:44:26,0.0
4338,-497,297,-86,-59,6,2024-01-24 14:44:26,0.0
4316,-628,211,-90,-13,-5,2024-01-24 14:44:26,0.0
4381,-638,85,-71,15,-10,2024-01-24 14:44:27,0.0
4206,-540,59,-50,12,-16,2024-01-24 14:44:27,0.0
4250,-607,75,-33,57,-11,2024-01-24 14:44:27,0.0
3988,-484,175,-37,-61,31,2024-01-24 14:44:27,0.0
3911,-354,298,-79,-244,83,2024-01-24 14:44:27,0.0
4125,-573,178,-75,-447,136,2024-01-24 14:44:27,
3881,-539,-182,-61,-545,85,2024-01-24 14:44:27,0.0
3663,-384,-160,-142,-632,92,2024-01-24 14:44:27,0.0
3816,-485,-343,-216,-696,86,2024-01-24 14:44:27,0.0
3666,-606,-408,-225,-712,81,2024-01-24 14:44:27,0.0
4150,-731,-281,-170,-627,79,2024-01-24 14:44:27,0.0
3691,-568,-567,-210,-757,77,2024-01-24 14:44:27,0.0
4132,-570,-690,-151,-547,-48,2024-01-24 14:44:27,0.0
3754,-725,-810,-154,-378,62,2024-01-24 14:44:27,0.0
4311,-829,-635,-95,-48,-30,2024-01-24 14:44:27,0.0
4315,-567,-1080,54,184,28,2024-01-24 14:44:27,0.0
4352,-591,-810,-120,364,-103,2024-01-24 14:44:27,0.0
4354,-863,-760,16,148,134,2024-01-24 14:44:27,0.0
4809,-654,-1108,-190,267,2,2024-01-24 14:44:28,0.0
4752,-906,-625,-87,142,174,2024-01-24 14:44:28,0.0
4865,-837,-828,-127,255,-11,2024-01-24 14:44:28,0.0
4707,-594,-741,-147,297,-75,2024-01-24 14:44:28,0.0
4932,-973,-614,-20,569,-141,2024-01-24 14:44:28,0.0
5116,-536,-460,53,812,-141,2024-01-24 14:44:28,0.0
5039,-665,-124,137,877,-209,2024-01-24 14:44:28,0.0
4566,-476,176,209,822,-231,2024-01-24 14:44:28,0.0
4237,-288,593,98,861,-198,2024-01-24 14:44:28,0.0
4218,-373,796,113,782,-111,2024-01-24 14:44:28,0.0
4263,-234,964,124,650,-100,2024-01-24 14:44:28,0.0
4189,-117,1009,39,571,-80,2024-01-24 14:44:28,0.0
3994,-163,1044,39,486,-38,2024-01-24 14:44:28,0.0
4148,-366,1403,41,393,-27,2024-01-24 14:44:28,0.0
4110,-295,1349,9,332,30,2024-01-24 14:44:28,0.0
4070,-190,1366,3,261,29,2024-01-24 14:44:28,0.0
4011,-234,1534,-47,198,15,2024-01-24 14:44:28,0.0
4053,-162,1615,-27,238,65,2024-01-24 14:44:29,0.0
3975,-255,1639,25,139,89,2024-01-24 14:44:29,0.0
4040,-317,1528,-4,69,74,2024-01-24 14:44:29,0.0
3980,-261,1569,-103,10,20,2024-01-24 14:44:29,0.0
4010,-457,1679,-86,-27,53,2024-01-24 14:44:29,0.0
4000,-318,1623,-41,-39,17,2024-01-24 14:44:29,0.0
3952,-419,1648,-91,-55,-14,2024-01-24 14:44:29,0.0
4076,-315,1565,-59,-44,9,2024-01-24 14:44:29,0.0
4026,-292,1569,-72,-31,-13,2024-01-24 14:44:29,0.0
4042,-357,1567,-31,-55,14,2024-01-24 14:44:29,0.0
4031,-338,1628,-27,-34,3,2024-01-24 14:44:29,0.0
3976,-345,1610,-37,-45,11,2024-01-24 14:44:29,0.0
4068,-320,1581,-46,-41,-17,2024-01-24 14:44:29,0.0
4032,-383,1530,-38,-71,11,2024-01-24 14:44:29,0.0
4026,-282,1592,-24,-51,22,2024-01-24 14:44:29,0.0
4050,-337,1558,-45,-84,8,2024-01-24 14:44:29,0.0
3995,-372,1494,-21,-76,23,2024-01-24 14:44:30,0.0
4034,-326,1480,-41,-46,3,2024-01-24 14:44:30,0.0
3952,-345,1458,-43,-67,10,2024-01-24 14:44:30,0.0
3680,-203,1661,-65,-226,35,2024-01-24 14:44:30,0.0
3796,-252,1857,-144,-487,89,2024-01-24 14:44:30,0.0
3881,-87,1942,-206,-661,319,2024-01-24 14:44:30,0.0
4085,-188,1396,-290,-1270,308,2024-01-24 14:44:30,0.0
4030,-467,1139,-312,-1611,279,2024-01-24 14:44:30,0.0
4490,-622,536,-350,-1678,213,2024-01-24 14:44:30,0.0
5167,-1064,-389,-343,-1930,219,2024-01-24 14:44:30,0.0
5361,-942,-955,-189,-1216,134,2024-01-24 14:44:30,0.0
4864,-987,-854,-21,-803,136,2024-01-24 14:44:30,0.0
4662,-1007,-1054,31,-682,225,2024-01-24 14:44:30,0.0
4914,-1161,-1359,92,-447,82,2024-01-24 14:44:30,0.0
4549,-938,-1502,95,-379,13,2024-01-24 14:44:30,0.0
4675,-947,-1428,32,-488,-86,2024-01-24 14:44:30,0.0
4617,-960,-1481,2,-294,-259,2024-01-24 14:44:30,0.0
4129,-828,-1370,18,-82,-209,2024-01-24 14:44:30,0.0
4093,-746,-1564,78,80,-86,2024-01-24 14:44:30,0.0
3805,-815,-1519,41,307,-263,2024-01-24 14:44:31,0.0
3774,-807,-1295,159,771,-116,2024-01-24 14:44:31,0.0
3628,-676,-1209,214,888,-116,2024-01-24 14:44:31,0.0
4077,-336,-1000,85,1086,-219,2024-01-24 14:44:31,0.0
3702,-872,-524,22,995,-247,2024-01-24 14:44:31,0.0
3371,-607,-600,129,725,-42,2024-01-24 14:44:31,0.0
3555,-281,-549,245,834,13,2024-01-24 14:44:31,0.0
3425,-450,-219,39,965,-132,2024-01-24 14:44:31,0.0
3744,-523,175,-99,209,48,2024-01-24 14:44:31,0.0
4344,-591,345,-27,198,-61,2024-01-24 14:44:31,0.0
4342,-687,557,85,320,-8,2024-01-24 14:44:31,0.0
3833,-213,420,-17,46,-53,2024-01-24 14:44:31,0.0
4418,-196,359,-91,-112,52,2024-01-24 14:44:31,0.0
4314,-750,324,-186,73,-15,2024-01-24 14:44:31,0.0
4293,-539,428,-168,-53,-35,2024-01-24 14:44:31,0.0
4327,-640,509,-86,3,32,2024-01-24 14:44:31,0.0
4285,-365,486,-48,-13,-8,2024-01-24 14:44:31,0.0
4311,-524,445,-57,-22,17,2024-01-24 14:44:31,0.0
4267,-534,475,-28,-59,1,2024-01-24 14:44:32,0.0
4325,-522,429,3,-24,16,2024-01-24 14:44:32,0.0
4333,-463,442,2,-19,21,2024-01-24 14:44:32,0.0
4290,-520,543,-2,-57,15,2024-01-24 14:44:35,0.0
4351,-492,419,15,-37,17,2024-01-24 14:44:35,0.0
4322,-485,450,15,-67,13,2024-01-24 14:44:35,0.0
4307,-476,400,22,-54,12,2024-01-24 14:44:35,0.0
4302,-571,333,62,-69,14,2024-01-24 14:44:35,0.0
4306,-480,312,77,-35,19,2024-01-24 14:44:35,0.0
4406,-523,179,54,-42,16,2024-01-24 14:44:35,0.0
4115,-858,-480,-266,-952,221,2024-01-24 14:44:35,0.0
4048,-476,-648,-253,-382,80,2024-01-24 14:44:35,0.0
4144,-371,1310,-58,-64,21,2024-01-24 14:44:35,0.0
4133,-395,1308,-50,-65,18,2024-01-24 14:44:35,0.0
4142,-400,1265,-65,-62,20,2024-01-24 14:44:35,0.0
4166,-391,1254,-71,-81,30,2024-01-24 14:44:35,0.0
4117,-427,1169,-59,-76,24,2024-01-24 14:44:35,0.0
3978,-403,1264,-48,-58,21,2024-01-24 14:44:35,
4031,-479,1382,-77,-122,10,2024-01-24 14:44:35,0.0
3734,-364,1424,-138,-325,49,2024-01-24 14:44:35,0.0
3803,-333,1284,-174,-543,120,2024-01-24 14:44:35,0.0
4116,-81,1555,-300,-1043,190,2024-01-24 14:44:35,0.0
4217,-263,1212,-379,-1423,244,2024-01-24 14:44:35,0.0
5314,-656,212,-357,-1816,207,2024-01-24 14:44:36,0.0
5293,-981,-344,-297,-1526,182,2024-01-24 14:44:36,0.0
5090,-993,-960,-104,-991,119,2024-01-24 14:44:36,0.0
4767,-871,-937,-48,-721,148,2024-01-24 14:44:36,0.0
5003,-1063,-1187,-43,-677,134,2024-01-24 14:44:36,0.0
4897,-940,-1382,-9,-516,103,2024-01-24 14:44:36,0.0
4782,-953,-1419,5,-410,147,2024-01-24 14:44:36,0.0
4642,-1054,-1364,-61,-514,133,2024-01-24 14:44:36,0.0
4348,-864,-1095,-49,-276,-10,2024-01-24 14:44:36,0.0
4389,-848,-1273,-43,68,-63,2024-01-24 14:44:36,0.0
4038,-999,-1045,91,718,-248,2024-01-24 14:44:36,0.0
3478,-1001,-857,230,991,-241,2024-01-24 14:44:36,0.0
3471,-706,-713,362,827,-122,2024-01-24 14:44:36,0.0
3584,-870,-770,236,442,-147,2024-01-24 14:44:36,0.0
3952,-598,-653,260,920,-88,2024-01-24 14:44:36,0.0
3299,-635,-507,236,907,-150,2024-01-24 14:44:36,0.0
3393,-356,-356,76,744,-206,2024-01-24 14:44:36,0.0
3290,-485,-192,-75,688,-198,2024-01-24 14:44:36,0.0
3745,-761,-161,33,434,-49,2024-01-24 14:44:38,0.0
4610,-916,-69,119,333,57,2024-01-24 14:44:38,0.0
3945,-475,365,61,174,-1,2024-01-24 14:44:38,0.0
4418,-460,321,29,-126,48,2024-01-24 14:44:38,0.0
4210,-428,483,-27,-75,7,2024-01-24 14:44:38,0.0
4337,-424,375,-40,131,-5,2024-01-24 14:44:38,0.0
4343,-488,437,-140,62,3,2024-01-24 14:44:38,0.0
4166,-549,687,-131,21,-14,2024-01-24 14:44:38,0.0
4289,-525,391,-133,-91,-30,2024-01-24 14:44:38,0.0
3856,-459,-1061,-7,-911,201,2024-01-24 14:44:38,0.0
4177,-542,-603,-137,-316,-85,2024-01-24 14:44:38,0.0
4379,-871,-1029,-174,-172,-87,2024-01-24 14:44:38,0.0
3088,-510,-765,56,331,-141,2024-01-24 14:44:38,0.0
4714,-383,-946,74,289,73,2024-01-24 14:44:38,0.0
4693,-1088,-1128,12,561,-220,2024-01-24 14:44:38,0.0
4330,-599,-1148,-3,20,72,2024-01-24 14:44:39,0.0
4816,-1040,-1312,-21,-267,166,2024-01-24 14:44:39,0.0
4688,-845,-1337,-127,-237,72,2024-01-24 14:44:39,0.0
4496,-778,-1041,-33,-15,121,2024-01-24 14:44:39,0.0
4629,-987,-1125,-81,274,-22,2024-01-24 14:44:39,0.0
4562,-726,-967,-19,595,-44,2024-01-24 14:44:39,0.0
4669,-866,-764,41,707,-23,2024-01-24 14:44:39,0.0
4912,-986,-663,135,956,-86,2024-01-24 14:44:39,0.0
4827,-731,-57,195,944,-70,2024-01-24 14:44:39,0.0
4900,-975,154,136,970,-103,2024-01-24 14:44:39,0.0
4276,-523,483,66,911,-142,2024-01-24 14:44:39,0.0
3947,-603,653,65,665,-91,2024-01-24 14:44:39,0.0
4198,-388,746,104,765,-171,2024-01-24 14:44:39,0.0
4162,-610,1009,105,601,-156,2024-01-24 14:44:39,0.0
4149,-555,1119,135,348,-36,2024-01-24 14:44:39,0.0
4163,-228,1359,113,320,-16,2024-01-24 14:44:39,0.0
4043,-482,1400,113,287,-60,2024-01-24 14:44:39,0.0
4006,-254,1426,56,135,-37,2024-01-24 14:44:40,0.0
4068,-362,1270,-45,-8,-8,2024-01-24 14:44:40,0.0
4205,-345,1349,-75,37,-22,2024-01-24 14:44:40,0.0
4020,-294,1392,-89,-18,7,2024-01-24 14:44:40,0.0
4118,-367,1249,-29,50,-8,2024-01-24 14:44:40,0.0
4057,-383,1374,-31,11,16,2024-01-24 14:44:40,0.0
4170,-438,1283,-48,22,20,2024-01-24 14:44:40,0.0
4009,-513,1452,-45,-16,16,2024-01-24 14:44:40,0.0
4091,-374,1457,-71,-24,-12,2024-01-24 14:44:40,0.0
4139,-391,1325,-76,-71,10,2024-01-24 14:44:40,0.0
4120,-399,1278,-43,0,1,2024-01-24 14:44:40,0.0
4163,-365,1302,-41,-86,8,2024-01-24 14:44:40,0.0
4115,-441,1362,-49,-25,11,2024-01-24 14:44:40,0.0
4132,-447,1340,-45,-40,-2,2024-01-24 14:44:40,0.0
4069,-431,1334,-44,-23,5,2024-01-24 14:44:40,0.0
4184,-434,1347,-54,-43,-3,2024-01-24 14:44:40,0.0
4100,-342,1337,-23,-1,17,2024-01-24 14:44:40,0.0
4106,-427,1422,-27,-50,-1,2024-01-24 14:44:40,0.0
4085,-391,1385,-29,-61,17,2024-01-24 14:44:41,0.0
4071,-408,1332,-23,-65,30,2024-01-24 14:44:41,0.0
4158,-315,1243,-47,-86,-20,2024-01-24 14:44:41,0.0
3960,-378,1297,-27,-59,27,2024-01-24 14:44:41,0.0
4151,-290,1453,-60,-128,51,2024-01-24 14:44:41,0.0
4091,-404,1290,-70,-155,35,2024-01-24 14:44:41,0.0
4017,-361,1274,-76,-243,48,2024-01-24 14:44:41,0.0
4103,-498,1053,-132,-349,47,2024-01-24 14:44:41,0.0
4007,-412,1286,-114,-351,107,2024-01-24 14:44:41,0.0
4080,-416,1106,-102,-453,125,2024-01-24 14:44:41,0.0
3734,-156,1420,-212,-709,165,2024-01-24 14:44:41,0.0
4246,-475,1038,-394,-1532,217,2024-01-24 14:44:41,0.0
4704,-496,919,-436,-1789,244,2024-01-24 14:44:41,0.0
5314,-810,-534,-387,-2010,126,2024-01-24 14:44:41,0.0
5244,-906,-1032,-215,-1344,152,2024-01-24 14:44:41,0.0
4718,-1283,-1195,81,-497,66,2024-01-24 14:44:41,0.0
4190,-695,-1158,134,-681,321,2024-01-24 14:44:41,0.0
4807,-1035,-1530,80,-720,383,2024-01-24 14:44:42,0.0
4786,-1174,-1355,50,-521,154,2024-01-24 14:44:42,0.0
4530,-917,-1503,-10,-344,49,2024-01-24 14:44:42,0.0
4431,-1013,-1500,-8,-225,-32,2024-01-24 14:44:42,0.0
4385,-975,-1400,-72,-292,-75,2024-01-24 14:44:42,0.0
4322,-1213,-1344,34,25,-123,2024-01-24 14:44:42,0.0
4123,-963,-1437,103,195,-310,2024-01-24 14:44:42,0.0
3538,-699,-1247,166,617,-174,2024-01-24 14:44:42,0.0
3137,-676,-1155,144,432,-282,2024-01-24 14:44:42,0.0
3658,-877,-1242,167,884,-227,2024-01-24 14:44:42,
3752,-840,-1066,228,1037,-211,2024-01-24 14:44:42,0.0
3774,-587,-662,274,974,-137,2024-01-24 14:44:42,0.0
3703,-590,-687,210,732,-162,2024-01-24 14:44:42,0.0
3692,-544,-469,145,774,-213,2024-01-24 14:44:42,0.0
3430,-664,-250,77,649,-114,2024-01-24 14:44:42,0.0
3924,-559,118,56,378,-43,2024-01-24 14:44:42,0.0
3897,-329,120,-4,-109,33,2024-01-24 14:44:42,0.0
4652,-159,-201,-214,-298,19,2024-01-24 14:44:42,0.0
4343,-644,-76,-498,137,-94,2024-01-24 14:44:43,0.0
4178,-967,410,-235,295,-70,2024-01-24 14:44:43,0.0
4243,-202,381,-173,24,6,2024-01-24 14:44:43,0.0
4302,-460,225,-326,-79,-61,2024-01-24 14:44:43,0.0
4438,-570,207,-253,-62,2,2024-01-24 14:44:43,0.0
4299,-713,191,-159,31,-29,2024-01-24 14:44:43,0.0
4398,-653,316,-28,34,14,2024-01-24 14:44:43,0.0
4240,-356,272,-32,-98,-12,2024-01-24 14:44:43,0.0
4426,-494,150,-21,-71,44,2024-01-24 14:44:43,0.0
4306,-600,181,14,-9,24,2024-01-24 14:44:43,0.0
4438,-390,187,-13,-2,19,2024-01-24 14:44:43,0.0
4223,-443,249,-49,-12,18,2024-01-24 14:44:43,0.0
4397,-516,199,-56,-28,-8,2024-01-24 14:44:43,0.0
4223,-494,265,-29,-27,0,2024-01-24 14:44:43,0.0
4403,-414,236,-45,-10,10,2024-01-24 14:44:43,0.0
4304,-460,252,-83,18,-10,2024-01-24 14:44:43,0.0
4339,-570,249,-72,-9,-3,2024-01-24 14:44:43,0.0
4287,-497,251,-57,-15,-6,2024-01-24 14:44:44,0.0
4375,-487,219,-33,-15,14,2024-01-24 14:44:44,0.0
4370,-515,177,-16,-68,-2,2024-01-24 14:44:44,0.0
4400,-506,67,-15,98,-1,2024-01-24 14:44:44,0.0
4306,-433,147,-25,105,-1,2024-01-24 14:44:44,0.0
4386,-401,121,-104,124,-26,2024-01-24 14:44:44,0.0
4245,-411,203,-244,122,-15,2024-01-24 14:44:44,0.0
4207,-362,75,-503,-18,-57,2024-01-24 14:44:44,0.0
4009,-280,92,-622,-201,47,2024-01-24 14:44:44,0.0
3996,-603,115,-649,-279,146,2024-01-24 14:44:44,0.0
3408,-604,-42,-568,-713,264,2024-01-24 14:44:44,0.0
3883,-605,-210,-469,-1018,223,2024-01-24 14:44:44,0.0
4104,-632,-474,-263,-978,160,2024-01-24 14:44:44,0.0
3959,-748,-641,-104,-867,95,2024-01-24 14:44:44,0.0
4016,-416,-726,68,-875,40,2024-01-24 14:44:44,0.0
3988,-960,-919,21,-683,57,2024-01-24 14:44:44,0.0
4351,-869,-1041,196,-711,-55,2024-01-24 14:44:44,0.0
3933,-627,-1045,422,-108,-44,2024-01-24 14:44:44,0.0
4110,-801,-1018,323,-355,-2,2024-01-24 14:44:45,0.0
4101,-538,-811,281,339,-119,2024-01-24 14:44:45,0.0
4016,-621,-728,105,132,-33,2024-01-24 14:44:45,0.0
4081,-749,-701,72,428,-118,2024-01-24 14:44:45,0.0
4492,-947,-908,89,623,-38,2024-01-24 14:44:45,0.0
3966,-907,-739,49,367,0,2024-01-24 14:44:45,0.0
4417,-812,-771,30,177,95,2024-01-24 14:44:45,0.0
4220,-822,-687,-113,90,-34,2024-01-24 14:44:45,0.0
4616,-821,-818,-73,43,65,2024-01-24 14:44:45,0.0
4498,-1001,-773,-62,46,37,2024-01-24 14:44:45,0.0
4818,-784,-1074,-116,308,-24,2024-01-24 14:44:45,0.0
4757,-1003,-670,-55,600,-83,2024-01-24 14:44:45,0.0
5348,-826,-535,187,910,-136,2024-01-24 14:44:45,0.0
5365,-1105,-80,247,915,-162,2024-01-24 14:44:45,0.0
4377,-671,579,136,1110,-124,2024-01-24 14:44:45,0.0
4220,-596,696,211,1036,-103,2024-01-24 14:44:45,0.0
3823,-329,925,72,1087,-249,2024-01-24 14:44:45,0.0
4138,-519,1061,143,589,-74,2024-01-24 14:44:46,0.0
4185,-221,1293,79,513,-47,2024-01-24 14:44:46,0.0
3971,-329,1558,105,522,-88,2024-01-24 14:44:46,0.0
4014,-451,1449,180,578,-77,2024-01-24 14:44:46,0.0
3612,-197,1769,164,578,18,2024-01-24 14:44:46,0.0
3933,-216,2076,24,334,-8,2024-01-24 14:44:46,0.0
3957,-366,2033,-28,-67,-41,2024-01-24 14:44:46,0.0
3780,-367,1820,-80,-37,-86,2024-01-24 14:44:46,0.0
3793,-367,1825,-65,6,-82,2024-01-24 14:44:46,0.0
4084,-343,1827,-65,-19,-76,2024-01-24 14:44:46,0.0
3994,-137,1726,-54,-131,-26,2024-01-24 14:44:46,0.0
4015,-258,1589,-16,-122,-39,2024-01-24 14:44:46,0.0
3893,-222,1806,-21,-75,-4,2024-01-24 14:44:46,0.0
4091,-327,1720,-31,-61,10,2024-01-24 14:44:46,0.0
3961,-242,1677,-44,-64,-1,2024-01-24 14:44:46,0.0
3974,-308,1714,-61,-89,0,2024-01-24 14:44:46,0.0
4036,-265,1671,-53,-37,-2,2024-01-24 14:44:46,0.0
3999,-231,1700,-55,-13,2,2024-01-24 14:44:46,0.0
3995,-247,1687,-52,-30,6,2024-01-24 14:44:47,0.0
4042,-310,1695,-43,-1,4,2024-01-24 14:44:47,0.0
3937,-286,1807,-37,35,4,2024-01-24 14:44:47,0.0
3998,-280,1706,-43,-48,16,2024-01-24 14:44:47,0.0
3978,-248,1722,-39,-3,7,2024-01-24 14:44:47,0.0
3999,-229,1686,-52,-23,-3,2024-01-24 14:44:47,0.0
3963,-266,1757,-52,-50,10,2024-01-24 14:44:47,0.0
4027,-245,1712,-52,-30,8,2024-01-24 14:44:47,0.0
3986,-288,1680,-47,0,8,2024-01-24 14:44:47,0.0
3952,-229,1795,-49,-41,12,2024-01-24 14:44:47,0.0
3978,-300,1719,-45,-25,-1,2024-01-24 14:44:47,0.0
3947,-268,1732,-39,-58,13,2024-01-24 14:44:47,0.0
3931,-263,1681,-33,-110,25,2024-01-24 14:44:47,0.0
3975,-181,1727,-39,-146,20,2024-01-24 14:44:47,0.0
3959,-327,1706,-35,-175,24,2024-01-24 14:44:47,0.0
3732,-157,1848,-65,-247,75,2024-01-24 14:44:47,0.0
3976,-128,1695,-158,-455,128,2024-01-24 14:44:47,0.0
3859,-237,1580,-168,-558,118,2024-01-24 14:44:48,0.0
3928,-151,1552,-240,-841,118,2024-01-24 14:44:48,0.0
3811,-375,1278,-282,-1221,153,2024-01-24 14:44:48,0.0
4181,-363,1069,-309,-1534,232,2024-01-24 14:44:48,0.0
5036,-364,507,-341,-1857,199,2024-01-24 14:44:48,
5308,-994,-470,-274,-1762,130,2024-01-24 14:44:48,0.0
5227,-767,-747,-75,-1098,151,2024-01-24 14:44:48,0.0
5015,-887,-967,-31,-669,128,2024-01-24 14:44:48,0.0
4836,-790,-1141,123,-480,180,2024-01-24 14:44:48,0.0
4657,-912,-1252,38,-589,195,2024-01-24 14:44:48,0.0
4418,-808,-1234,135,-276,307,2024-01-24 14:44:48,0.0
4809,-925,-1404,20,-306,220,2024-01-24 14:44:48,0.0
4518,-862,-1435,-57,-48,-31,2024-01-24 14:44:48,0.0
4398,-681,-1439,-133,262,-163,2024-01-24 14:44:48,0.0
4276,-964,-671,-74,504,-237,2024-01-24 14:44:48,0.0
3816,-789,-509,-83,367,-239,2024-01-24 14:44:48,0.0
4061,-727,-644,121,610,-44,2024-01-24 14:44:48,0.0
3983,-831,-559,219,795,-40,2024-01-24 14:44:48,0.0
3673,-788,-535,251,712,-85,2024-01-24 14:44:49,0.0
3491,-651,-514,198,848,-139,2024-01-24 14:44:49,0.0
3451,-468,-509,142,664,-100,2024-01-24 14:44:49,0.0
3343,-356,-337,74,594,-76,2024-01-24 14:44:49,0.0
3573,-395,-139,-87,275,-104,2024-01-24 14:44:49,0.0
4278,-635,-272,-68,267,-94,2024-01-24 14:44:49,0.0
4034,-598,58,-156,96,-58,2024-01-24 14:44:49,0.0
4264,-404,167,-111,-79,-58,2024-01-24 14:44:49,0.0
4495,-557,-98,-32,-75,71,2024-01-24 14:44:49,0.0
4438,-364,82,-200,90,-20,2024-01-24 14:44:49,0.0
4333,-846,447,-120,212,-45,2024-01-24 14:44:49,0.0
3952,-774,482,98,52,56,2024-01-24 14:44:49,0.0
4377,-411,520,106,-54,48,2024-01-24 14:44:49,0.0
4212,-445,513,66,-81,113,2024-01-24 14:44:49,0.0
4343,-484,506,52,-102,34,2024-01-24 14:44:49,0.0
4359,-419,394,-14,-210,99,2024-01-24 14:44:51,0.0
4426,-516,340,-9,13,-12,2024-01-24 14:44:51,0.0
4171,-575,372,-1,29,8,2024-01-24 14:44:51,0.0
4391,-486,425,-20,-65,16,2024-01-24 14:44:51,0.0
4255,-551,338,-37,-54,17,2024-01-24 14:44:51,0.0
4390,-540,356,-47,-49,18,2024-01-24 14:44:51,0.0
4298,-589,320,-31,-33,18,2024-01-24 14:44:51,0.0
4354,-516,286,-16,-48,23,2024-01-24 14:44:51,0.0
4303,-567,-57,10,-76,22,2024-01-24 14:44:51,0.0
3782,-227,276,-274,-520,221,2024-01-24 14:44:51,0.0
3790,-682,-68,-411,-1127,325,2024-01-24 14:44:51,0.0
3908,-916,-19,-194,-976,282,2024-01-24 14:44:51,0.0
3969,-771,-436,-192,-1271,215,2024-01-24 14:44:51,0.0
4245,-454,-657,-286,-631,164,2024-01-24 14:44:51,0.0
4089,-880,-485,-227,-480,1,2024-01-24 14:44:51,0.0
3579,-1068,-909,-193,-590,115,2024-01-24 14:44:51,0.0
4294,-646,-897,-50,-230,126,2024-01-24 14:44:51,0.0
4310,-834,-783,-103,144,46,2024-01-24 14:44:51,0.0
3840,-846,-815,-86,218,-113,2024-01-24 14:44:51,0.0
4210,-879,-641,-4,384,-13,2024-01-24 14:44:51,0.0
4055,-776,-660,-145,357,-159,2024-01-24 14:44:51,0.0
4868,-913,-949,-209,317,37,2024-01-24 14:44:51,0.0
3952,-944,-687,-157,126,-11,2024-01-24 14:44:52,0.0
4774,-806,-911,-261,20,-135,2024-01-24 14:44:52,0.0
4499,-964,-872,-431,39,-209,2024-01-24 14:44:52,0.0
4770,-531,-880,-405,134,-61,2024-01-24 14:44:52,0.0
4711,-950,-758,-276,410,-63,2024-01-24 14:44:52,0.0
4776,-768,-803,-9,751,38,2024-01-24 14:44:52,0.0
5101,-782,-664,104,807,-137,2024-01-24 14:44:52,0.0
4880,-729,46,221,915,-159,2024-01-24 14:44:52,0.0
4683,-680,507,254,959,-107,2024-01-24 14:44:52,0.0
4493,-628,653,167,1000,-120,2024-01-24 14:44:52,0.0
3928,-397,811,196,805,-139,2024-01-24 14:44:52,0.0
4156,-500,850,145,604,-88,2024-01-24 14:44:52,0.0
4305,-568,1056,255,590,-11,2024-01-24 14:44:52,0.0
4053,9,1226,198,459,-95,2024-01-24 14:44:52,0.0
3939,-207,1600,176,420,-42,2024-01-24 14:44:52,0.0
3915,-214,1709,119,272,54,2024-01-24 14:44:52,0.0
3836,-158,1775,-7,136,-5,2024-01-24 14:44:52,0.0
3926,-225,1519,-69,56,-82,2024-01-24 14:44:53,0.0
4111,-321,1502,-121,-7,-13,2024-01-24 14:44:53,0.0
3860,-277,1355,-122,-62,-37,2024-01-24 14:44:53,0.0
4171,-375,1511,-63,-21,-33,2024-01-24 14:44:53,0.0
4014,-257,1585,-56,-36,7,2024-01-24 14:44:53,0.0
4078,-305,1502,-38,-11,1,2024-01-24 14:44:53,0.0
4087,-280,1419,-29,-20,13,2024-01-24 14:44:53,0.0
4074,-290,1476,-23,6,-3,2024-01-24 14:44:53,0.0
4022,-257,1634,-57,50,6,2024-01-24 14:44:53,0.0
4071,-294,1604,-54,16,-2,2024-01-24 14:44:53,0.0
4031,-250,1579,-58,-20,6,2024-01-24 14:44:53,0.0
4036,-283,1506,-58,-39,29,2024-01-24 14:44:53,0.0
4051,-267,1590,-46,-42,8,2024-01-24 14:44:53,0.0
4059,-242,1559,-52,-79,42,2024-01-24 14:44:53,0.0
4150,-370,1522,-55,40,-27,2024-01-24 14:44:53,0.0
3960,-341,1558,-69,-96,2,2024-01-24 14:44:53,0.0
4115,-239,1591,-83,-23,-10,2024-01-24 14:44:53,0.0
4019,-214,1545,-72,-105,5,2024-01-24 14:44:54,0.0
4085,-266,1508,-35,-78,-2,2024-01-24 14:44:54,0.0
4099,-397,1394,-21,-52,-5,2024-01-24 14:44:54,0.0
4026,-367,1506,-28,-42,24,2024-01-24 14:44:54,0.0
4041,-328,1538,-36,-57,5,2024-01-24 14:44:54,0.0
4024,-276,1535,-35,-74,2,2024-01-24 14:44:54,0.0
4086,-222,1406,-40,-76,-5,2024-01-24 14:44:54,0.0
3976,-234,1397,-37,-74,14,2024-01-24 14:44:54,0.0
3839,-148,1572,-80,-162,42,2024-01-24 14:44:54,0.0
4002,-232,1603,-85,-342,86,2024-01-24 14:44:54,0.0
3954,-236,1534,-128,-489,109,2024-01-24 14:44:54,0.0
3856,-216,1448,-149,-751,186,2024-01-24 14:44:54,0.0
4148,-392,1432,-228,-1064,197,2024-01-24 14:44:54,0.0
4361,-392,1329,-293,-1436,181,2024-01-24 14:44:54,0.0
4835,-611,484,-261,-1499,230,2024-01-24 14:44:54,0.0
5190,-668,-407,-192,-1293,194,2024-01-24 14:44:54,
4968,-671,-439,-98,-977,149,2024-01-24 14:44:54,0.0
4900,-787,-756,-48,-782,190,2024-01-24 14:44:54,0.0
4880,-1058,-872,-66,-675,204,2024-01-24 14:44:55,0.0
4694,-754,-1104,-11,-833,208,2024-01-24 14:44:55,0.0
4934,-876,-1750,-112,-914,219,2024-01-24 14:44:55,0.0
3909,-852,-1083,-29,-506,211,2024-01-24 14:44:55,0.0
4035,-812,-1102,4,-497,112,2024-01-24 14:44:55,0.0
4115,-755,-1303,-44,-162,-14,2024-01-24 14:44:55,0.0
4211,-1037,-1413,31,127,-46,2024-01-24 14:44:55,0.0
4463,-1023,-1366,128,234,-81,2024-01-24 14:44:55,0.0
4322,-919,-1321,193,638,-127,2024-01-24 14:44:55,0.0
3911,-764,-1002,186,973,-115,2024-01-24 14:44:55,0.0
3739,-953,-685,313,1064,-87,2024-01-24 14:44:55,0.0
3510,-812,-757,345,1018,-113,2024-01-24 14:44:55,0.0
3545,-605,-790,319,978,-121,2024-01-24 14:44:55,0.0
3360,-746,-571,271,879,-130,2024-01-24 14:44:55,0.0
3590,-980,-179,199,628,-195,2024-01-24 14:44:55,0.0
3981,-579,252,210,137,-118,2024-01-24 14:44:55,0.0
4246,-614,243,146,27,-80,2024-01-24 14:44:55,0.0
3969,-712,266,111,-11,18,2024-01-24 14:44:55,0.0
3992,-625,260,64,11,-13,2024-01-24 14:44:56,0.0
4237,-564,344,49,-97,11,2024-01-24 14:44:56,0.0
4332,-444,184,-44,-140,5,2024-01-24 14:44:56,0.0
4342,-423,127,-205,-160,-17,2024-01-24 14:44:56,0.0
4408,-888,217,-163,142,-48,2024-01-24 14:44:56,0.0
4169,-666,437,6,73,0,2024-01-24 14:44:56,0.0
4266,-520,494,-16,-86,12,2024-01-24 14:44:56,0.0
4319,-607,271,-42,-66,1,2024-01-24 14:44:59,0.0
4321,-607,183,-40,-64,21,2024-01-24 14:44:59,0.0
4459,-606,261,-117,92,-2,2024-01-24 14:44:59,0.0
4244,-442,365,-186,124,-9,2024-01-24 14:44:59,0.0
4157,-615,487,-200,110,-31,2024-01-24 14:44:59,0.0
4353,-588,511,-184,-127,5,2024-01-24 14:44:59,0.0
4310,-668,410,-89,-66,41,2024-01-24 14:44:59,0.0
4289,-652,420,53,53,25,2024-01-24 14:44:59,0.0
4335,-606,232,-74,137,-16,2024-01-24 14:44:59,0.0
4164,-340,1547,-50,-85,36,2024-01-24 14:45:00,0.0
3994,-333,1532,9,-13,8,2024-01-24 14:45:00,0.0
4137,-230,1582,-22,47,-9,2024-01-24 14:45:00,0.0
3943,-160,1676,-42,-6,20,2024-01-24 14:45:00,0.0
4133,-141,1606,-46,-16,-3,2024-01-24 14:45:00,0.0
3961,-88,1659,-69,10,34,2024-01-24 14:45:00,0.0
4070,-265,1602,-38,26,29,2024-01-24 14:45:00,0.0
3987,-205,1665,-43,27,17,2024-01-24 14:45:00,0.0
4000,-308,1636,-53,-8,25,2024-01-24 14:45:00,0.0
3989,-323,1676,-43,-38,10,2024-01-24 14:45:00,0.0
3999,-250,1626,-69,-51,18,2024-01-24 14:45:00,0.0
4031,-278,1685,-8,-13,12,2024-01-24 14:45:00,0.0
4035,-238,1674,-43,-30,-6,2024-01-24 14:45:00,0.0
4012,-292,1645,-34,-19,15,2024-01-24 14:45:00,0.0
3973,-204,1676,-48,-29,-21,2024-01-24 14:45:00,0.0
4043,-212,1632,-45,-14,10,2024-01-24 14:45:00,0.0
3993,-255,1637,-17,-17,2,2024-01-24 14:45:00,0.0
4033,-254,1678,-39,2,-2,2024-01-24 14:45:00,0.0
3977,-256,1707,-44,-17,-2,2024-01-24 14:45:01,0.0
3993,-215,1708,-46,-17,9,2024-01-24 14:45:01,0.0
3983,-191,1695,-32,-37,21,2024-01-24 14:45:01,0.0
4037,-239,1660,-40,-14,-1,2024-01-24 14:45:01,0.0
3895,-237,1709,-33,-36,19,2024-01-24 14:45:01,0.0
3967,-169,1753,-71,-99,15,2024-01-24 14:45:01,0.0
4038,-313,1601,-37,-20,15,2024-01-24 14:45:01,0.0
3543,-153,1811,-15,-243,72,2024-01-24 14:45:01,0.0
3935,-148,1607,-116,-429,83,2024-01-24 14:45:01,0.0
3626,-196,1906,-170,-616,154,2024-01-24 14:45:01,0.0
3815,49,1728,-256,-1084,194,2024-01-24 14:45:01,0.0
4172,-136,1699,-332,-1344,200,2024-01-24 14:45:01,0.0
4823,-169,1094,-410,-1839,372,2024-01-24 14:45:01,0.0
5429,-1067,-10,-303,-1735,296,2024-01-24 14:45:01,0.0
5250,-770,-437,-126,-852,228,2024-01-24 14:45:01,0.0
4896,-981,-564,-173,-750,132,2024-01-24 14:45:01,0.0
4999,-885,-824,-105,-646,228,2024-01-24 14:45:01,0.0
4807,-1093,-1034,-133,-760,115,2024-01-24 14:45:02,0.0
4719,-828,-1112,-24,-718,205,2024-01-24 14:45:02,0.0
4636,-997,-1102,-60,-627,140,2024-01-24 14:45:02,0.0
4496,-914,-1085,-44,-384,-24,2024-01-24 14:45:02,0.0
4383,-668,-1368,10,116,-132,2024-01-24 14:45:02,0.0
3750,-813,-1049,35,643,-78,2024-01-24 14:45:02,0.0
3526,-931,-663,95,481,-147,2024-01-24 14:45:02,0.0
3810,-668,-788,237,753,-52,2024-01-24 14:45:02,0.0
3522,-809,-720,342,1105,-88,2024-01-24 14:45:02,0.0
3255,-558,-610,330,694,-108,2024-01-24 14:45:02,0.0
3446,-608,-247,223,536,-102,2024-01-24 14:45:02,0.0
3619,-613,-268,136,370,-93,2024-01-24 14:45:02,0.0
3948,-733,-182,187,453,-159,2024-01-24 14:45:02,0.0
3971,-489,-109,59,459,-135,2024-01-24 14:45:02,0.0
3926,-573,161,70,211,-67,2024-01-24 14:45:02,0.0
4399,-671,105,122,133,8,2024-01-24 14:45:02,0.0
4090,-662,-117,29,-94,-13,2024-01-24 14:45:02,0.0
4541,-752,122,-60,-153,26,2024-01-24 14:45:02,0.0
4103,-514,202,-27,66,24,2024-01-24 14:45:03,0.0
4306,-366,414,-102,8,44,2024-01-24 14:45:03,0.0
4326,-671,316,-167,-40,6,2024-01-24 14:45:03,0.0
4395,-569,174,-127,-71,23,2024-01-24 14:45:03,0.0
4256,-750,268,-121,-8,-17,2024-01-24 14:45:03,0.0
4337,-638,351,-66,-57,11,2024-01-24 14:45:03,0.0
4293,-722,235,-49,-43,16,2024-01-24 14:45:03,0.0
4333,-604,295,-38,-28,18,2024-01-24 14:45:03,0.0
4305,-718,276,-35,15,3,2024-01-24 14:45:03,0.0
4272,-645,300,-17,-32,12,2024-01-24 14:45:03,0.0
4301,-678,288,-7,-19,8,2024-01-24 14:45:03,
4286,-622,280,-11,-40,3,2024-01-24 14:45:03,0.0
4351,-594,249,-26,-30,3,2024-01-24 14:45:03,0.0
4297,-678,188,-53,-32,5,2024-01-24 14:45:03,0.0
4328,-632,263,-63,-38,0,2024-01-24 14:45:03,0.0
4246,-668,73,-98,-23,-5,2024-01-24 14:45:03,0.0
4394,-618,16,-139,53,-14,2024-01-24 14:45:03,0.0
4150,-567,59,-209,125,-26,2024-01-24 14:45:03,0.0
3893,-518,293,-256,-49,52,2024-01-24 14:45:04,0.0
4065,-715,187,-285,-333,114,2024-01-24 14:45:04,0.0
3967,-611,122,-262,-260,106,2024-01-24 14:45:04,0.0
3967,-640,19,-337,-659,210,2024-01-24 14:45:04,0.0
4047,-845,-167,-286,-535,135,2024-01-24 14:45:04,0.0
4102,-779,-88,-186,-661,80,2024-01-24 14:45:04,0.0
4225,-610,-323,-223,-345,-28,2024-01-24 14:45:04,0.0
4139,-528,-359,-272,-391,-105,2024-01-24 14:45:04,0.0
3822,-744,-307,-201,-344,-86,2024-01-24 14:45:04,0.0
4259,-855,-394,-119,-579,52,2024-01-24 14:45:04,0.0
3902,-655,-453,125,-113,28,2024-01-24 14:45:04,0.0
3834,-590,-358,-102,-616,156,2024-01-24 14:45:04,0.0
4093,-632,-994,-110,-140,-28,2024-01-24 14:45:04,0.0
3809,-719,-715,-33,-162,48,2024-01-24 14:45:04,0.0
4742,-857,-562,-36,81,-5,2024-01-24 14:45:04,0.0
3999,-736,-790,58,90,4,2024-01-24 14:45:04,0.0
4444,-743,-616,17,167,-44,2024-01-24 14:45:04,0.0
4149,-814,-760,28,117,15,2024-01-24 14:45:05,0.0
4533,-748,-881,-52,65,31,2024-01-24 14:45:05,0.0
4449,-817,-840,-57,132,19,2024-01-24 14:45:05,0.0
4433,-889,-918,-102,198,-86,2024-01-24 14:45:05,0.0
4645,-773,-728,-30,201,-34,2024-01-24 14:45:05,0.0
4572,-766,-699,13,324,-50,2024-01-24 14:45:05,0.0
4770,-789,-722,-30,371,60,2024-01-24 14:45:05,0.0
4669,-886,-402,18,698,19,2024-01-24 14:45:05,0.0
4906,-862,-288,92,778,-34,2024-01-24 14:45:05,0.0
4884,-877,140,130,925,-50,2024-01-24 14:45:05,0.0
4567,-872,592,168,979,-52,2024-01-24 14:45:05,0.0
4252,-488,865,52,983,-107,2024-01-24 14:45:05,0.0
3894,-598,1081,111,727,-53,2024-01-24 14:45:05,0.0
4083,-460,1145,107,564,-117,2024-01-24 14:45:05,0.0
4042,-630,1293,156,555,-50,2024-01-24 14:45:05,0.0
4074,-554,1430,153,426,-70,2024-01-24 14:45:05,0.0
3932,-426,1473,96,320,-94,2024-01-24 14:45:05,0.0
3949,-443,1581,124,211,-97,2024-01-24 14:45:06,0.0
3915,-333,1799,128,183,-71,2024-01-24 14:45:06,0.0
4004,-262,1862,49,79,-73,2024-01-24 14:45:06,0.0
3871,-366,1805,39,57,-55,2024-01-24 14:45:06,0.0
3974,-285,1688,10,-9,-81,2024-01-24 14:45:06,0.0
3971,-222,1663,-19,-32,-43,2024-01-24 14:45:06,0.0
4010,-248,1667,-30,-65,-20,2024-01-24 14:45:06,0.0
4018,-253,1635,-44,-39,-16,2024-01-24 14:45:06,0.0
4022,-277,1638,-39,17,3,2024-01-24 14:45:06,0.0
3970,-299,1684,-45,2,3,2024-01-24 14:45:06,0.0
4022,-296,1617,-65,4,17,2024-01-24 14:45:06,0.0
4022,-297,1723,-79,27,4,2024-01-24 14:45:06,0.0
3936,-281,1748,-66,13,8,2024-01-24 14:45:06,0.0
4033,-351,1699,-53,-10,6,2024-01-24 14:45:06,0.0
3935,-323,1666,-43,-32,10,2024-01-24 14:45:06,0.0
4020,-307,1693,-48,-62,6,2024-01-24 14:45:06,0.0
3941,-268,1728,-48,-53,5,2024-01-24 14:45:06,0.0
3914,-310,1738,-41,-78,8,2024-01-24 14:45:06,0.0
3913,-269,1757,-47,-104,24,2024-01-24 14:45:07,0.0
3905,-278,1819,-84,-240,46,2024-01-24 14:45:07,0.0
3967,-267,1668,-90,-305,48,2024-01-24 14:45:07,0.0
3884,-224,1684,-119,-365,97,2024-01-24 14:45:07,0.0
4075,-370,1445,-155,-509,95,2024-01-24 14:45:07,0.0
4082,-355,1288,-122,-608,118,2024-01-24 14:45:07,0.0
4211,-348,968,-196,-674,113,2024-01-24 14:45:07,0.0
4025,-632,870,-149,-578,76,2024-01-24 14:45:07,0.0
4381,-612,837,-154,-584,151,2024-01-24 14:45:07,0.0
3863,-80,874,-254,-654,190,2024-01-24 14:45:07,0.0
4430,-560,985,-302,-1142,180,2024-01-24 14:45:07,0.0
4971,-657,638,-202,-1178,163,2024-01-24 14:45:07,0.0
4963,-818,-117,-237,-1244,147,2024-01-24 14:45:07,0.0
4945,-829,-486,-81,-832,168,2024-01-24 14:45:07,0.0
4889,-859,-799,-43,-650,82,2024-01-24 14:45:07,0.0
4755,-912,-845,-65,-445,86,2024-01-24 14:45:07,0.0
4768,-1013,-1008,-94,-475,120,2024-01-24 14:45:07,0.0
4671,-928,-1067,-33,-315,102,2024-01-24 14:45:07,0.0
4516,-1000,-1065,-40,-364,76,2024-01-24 14:45:08,0.0
4360,-870,-1048,-115,-363,50,2024-01-24 14:45:08,0.0
4322,-936,-1223,-180,-336,2,2024-01-24 14:45:08,0.0
4110,-703,-974,-93,-241,4,2024-01-24 14:45:08,0.0
3867,-874,-935,-14,-144,26,2024-01-24 14:45:08,0.0
4182,-922,-1009,83,-11,-44,2024-01-24 14:45:08,0.0
4246,-892,-1010,176,451,-59,2024-01-24 14:45:08,0.0
4144,-1046,-1214,312,676,-129,2024-01-24 14:45:08,0.0
3900,-697,-427,375,1194,-133,2024-01-24 14:45:08,0.0
3618,-670,-445,256,855,-101,2024-01-24 14:45:08,0.0
3825,-567,-635,139,832,-239,2024-01-24 14:45:08,0.0
3402,-456,-426,54,839,-251,2024-01-24 14:45:08,0.0
3517,-516,-277,-53,513,-119,2024-01-24 14:45:08,0.0
3983,-585,-72,-78,369,-85,2024-01-24 14:45:08,0.0
4159,-524,29,-102,329,-101,2024-01-24 14:45:08,0.0
4135,-380,254,-188,118,-84,2024-01-24 14:45:08,0.0
4065,-466,323,-255,-126,-22,2024-01-24 14:45:08,0.0
4339,-538,-62,-234,-292,-40,2024-01-24 14:45:09,0.0
4499,-543,-121,-274,-68,-52,2024-01-24 14:45:09,0.0
4290,-562,127,-317,96,-85,2024-01-24 14:45:09,0.0
4195,-700,404,-166,169,-44,2024-01-24 14:45:09,0.0
4242,-675,354,-99,-105,14,2024-01-24 14:45:09,0.0
4379,-597,338,-33,-129,9,2024-01-24 14:45:09,
4370,-503,254,-38,-79,22,2024-01-24 14:45:09,0.0
4298,-404,473,-82,27,7,2024-01-24 14:45:09,0.0
4271,-490,441,-132,24,38,2024-01-24 14:45:09,0.0
4352,-531,317,-123,-43,-1,2024-01-24 14:45:09,0.0
4253,-522,191,-63,-49,20,2024-01-24 14:45:09,0.0
4331,-481,289,-62,-64,31,2024-01-24 14:45:09,0.0
4472,-373,24,120,-42,71,2024-01-24 14:45:09,0.0
4234,-429,398,17,-27,-13,2024-01-24 14:45:09,0.0
4481,-604,270,8,7,50,2024-01-24 14:45:09,0.0
4169,-612,341,-14,-4,32,2024-01-24 14:45:09,0.0
4395,-399,382,-91,-42,3,2024-01-24 14:45:09,0.0
4241,-653,331,-86,-52,25,2024-01-24 14:45:09,0.0
4365,-496,323,-85,-35,7,2024-01-24 14:45:10,0.0
4315,-616,306,-71,-24,5,2024-01-24 14:45:10,0.0
4288,-553,260,-11,-54,41,2024-01-24 14:45:10,0.0
4352,-525,219,69,-36,36,2024-01-24 14:45:10,0.0
4299,-580,275,69,-31,21,2024-01-24 14:45:10,0.0
4380,-562,274,56,-68,32,2024-01-24 14:45:10,0.0
4279,-624,258,47,-38,35,2024-01-24 14:45:10,0.0
4346,-559,325,24,-32,11,2024-01-24 14:45:10,0.0
4241,-540,322,13,-37,42,2024-01-24 14:45:10,0.0
4347,-561,244,6,15,24,2024-01-24 14:45:10,0.0
4306,-566,319,-19,25,22,2024-01-24 14:45:10,0.0
4276,-497,348,3,-9,25,2024-01-24 14:45:10,0.0
4274,-625,323,18,-9,9,2024-01-24 14:45:10,0.0
4365,-648,121,8,0,0,2024-01-24 14:45:10,0.0
4245,-515,204,-25,3,-1,2024-01-24 14:45:10,0.0
4376,-593,122,-43,14,27,2024-01-24 14:45:10,0.0
4285,-614,303,-37,-8,44,2024-01-24 14:45:10,0.0
4272,-564,92,-4,32,59,2024-01-24 14:45:11,0.0
4226,-567,-65,-37,69,47,2024-01-24 14:45:11,0.0
3256,-700,339,-16,-352,190,2024-01-24 14:45:11,0.0
3736,-529,311,-120,-785,246,2024-01-24 14:45:11,0.0
3619,-758,-57,-125,-912,175,2024-01-24 14:45:11,0.0
4362,-800,-196,-127,-799,118,2024-01-24 14:45:11,0.0
3748,-403,42,-226,-784,87,2024-01-24 14:45:11,0.0
4373,-718,-429,-232,-497,13,2024-01-24 14:45:11,0.0
3812,-1107,-652,-122,-581,20,2024-01-24 14:45:11,0.0
4067,-933,-208,26,-563,105,2024-01-24 14:45:11,0.0
4174,-492,-1058,73,-396,146,2024-01-24 14:45:11,0.0
4005,-582,-858,-163,-201,-63,2024-01-24 14:45:11,0.0
4106,-1010,-764,-152,95,-69,2024-01-24 14:45:11,0.0
4472,-962,-842,-53,229,15,2024-01-24 14:45:11,0.0
4033,-519,-821,-195,320,-117,2024-01-24 14:45:11,0.0
4582,-1233,-898,-220,212,-171,2024-01-24 14:45:11,0.0
4411,-502,-797,-23,272,134,2024-01-24 14:45:11,0.0
4379,-864,-792,-221,46,-131,2024-01-24 14:45:12,0.0
4586,-821,-929,-129,8,-75,2024-01-24 14:45:12,0.0
4689,-669,-745,-51,489,-187,2024-01-24 14:45:12,0.0
4442,-630,-473,-35,303,-97,2024-01-24 14:45:12,0.0
4690,-552,-595,13,586,-87,2024-01-24 14:45:12,0.0
4529,-668,-273,44,613,50,2024-01-24 14:45:12,0.0
5045,-790,-452,125,780,-48,2024-01-24 14:45:12,0.0
5140,-771,178,172,894,-143,2024-01-24 14:45:12,0.0
4704,-513,649,158,853,-128,2024-01-24 14:45:12,0.0
4336,-584,780,40,881,-193,2024-01-24 14:45:12,0.0
3820,-262,988,45,600,-134,2024-01-24 14:45:12,0.0
4297,-523,1018,112,564,-131,2024-01-24 14:45:12,0.0
4187,-193,1338,49,600,-109,2024-01-24 14:45:12,0.0
3984,-291,1424,51,462,-75,2024-01-24 14:45:12,0.0
3964,-245,1539,51,395,-88,2024-01-24 14:45:12,0.0
4017,-178,1563,56,307,-50,2024-01-24 14:45:12,0.0
4083,-267,1616,39,297,-7,2024-01-24 14:45:12,0.0
3931,-112,1667,9,278,0,2024-01-24 14:45:12,0.0
3842,-174,1801,-21,328,41,2024-01-24 14:45:13,0.0
3896,-315,1997,-9,130,-1,2024-01-24 14:45:13,0.0
3802,-161,2043,-82,45,51,2024-01-24 14:45:13,0.0
3917,-315,2006,-92,-5,36,2024-01-24 14:45:13,0.0
3808,-209,1829,-36,-59,48,2024-01-24 14:45:13,0.0
4075,-362,1813,-23,-198,7,2024-01-24 14:45:13,0.0
4066,-220,1721,-62,-101,50,2024-01-24 14:45:13,0.0
3842,-441,1663,26,-212,2,2024-01-24 14:45:13,0.0
4154,-219,1753,-2,2,25,2024-01-24 14:45:13,0.0
3938,-351,1724,-18,-120,61,2024-01-24 14:45:13,0.0
4051,-214,1697,1,-110,-17,2024-01-24 14:45:13,0.0
3992,-323,1701,-17,-66,13,2024-01-24 14:45:13,0.0
3983,-396,1799,18,-128,24,2024-01-24 14:45:13,0.0
4058,-185,1574,-17,-119,3,2024-01-24 14:45:13,0.0
4057,-284,1615,-5,-48,13,2024-01-24 14:45:13,0.0
3999,-174,1553,-9,-110,5,2024-01-24 14:45:13,0.0
4067,-314,1608,-23,-48,15,2024-01-24 14:45:13,0.0
3977,-225,1644,-3,-65,22,2024-01-24 14:45:13,0.0
4057,-280,1598,-52,-70,8,2024-01-24 14:45:14,0.0
4001,-240,1574,-39,-74,13,2024-01-24 14:45:14,0.0
3988,-247,1596,-66,-139,9,2024-01-24 14:45:14,0.0
3998,-261,1596,-58,-101,33,2024-01-24 14:45:14,0.0
3927,-288,1529,-70,-117,65,2024-01-24 14:45:14,0.0
3888,-208,1639,-74,-256,121,2024-01-24 14:45:14,0.0
3947,-184,1533,-113,-324,172,2024-01-24 14:45:14,0.0
3630,-41,1550,-202,-525,223,2024-01-24 14:45:14,0.0
3954,-257,1590,-289,-1127,303,2024-01-24 14:45:14,0.0
4428,-129,1551,-385,-1308,311,2024-01-24 14:45:14,0.0
5002,-905,616,-297,-1641,393,2024-01-24 14:45:14,0.0
5077,-975,-323,-301,-1497,265,2024-01-24 14:45:14,0.0
5220,-983,-417,-91,-780,171,2024-01-24 14:45:14,0.0
4887,-1086,-642,-107,-789,101,2024-01-24 14:45:14,0.0
4910,-961,-772,-66,-640,127,2024-01-24 14:45:14,0.0
4661,-997,-805,-36,-689,128,2024-01-24 14:45:14,0.0
4552,-996,-944,-25,-687,160,2024-01-24 14:45:14,0.0
4508,-1047,-857,1,-424,7,2024-01-24 14:45:15,
4372,-942,-886,-3,-253,-59,2024-01-24 14:45:15,0.0
4368,-853,-795,-16,-91,-90,2024-01-24 14:45:15,0.0
4209,-892,-828,58,326,-93,2024-01-24 14:45:15,0.0
4103,-812,-724,25,814,-186,2024-01-24 14:45:15,0.0
3884,-741,-757,79,830,-147,2024-01-24 14:45:15,0.0
3631,-911,-476,118,900,-124,2024-01-24 14:45:15,0.0
3568,-719,-474,157,800,-83,2024-01-24 14:45:15,0.0
3279,-706,-662,162,714,-74,2024-01-24 14:45:15,0.0
3010,-584,-442,116,636,-143,2024-01-24 14:45:15,0.0
3554,-548,-353,87,382,-107,2024-01-24 14:45:15,0.0
4296,-780,-1,135,297,-7,2024-01-24 14:45:15,0.0
4193,-447,363,8,57,-8,2024-01-24 14:45:15,0.0
4174,-565,304,7,57,2,2024-01-24 14:45:15,0.0
4113,-500,344,-129,-138,2,2024-01-24 14:45:15,0.0
4537,-774,213,-38,-63,40,2024-01-24 14:45:15,0.0
4345,-543,258,-90,85,-10,2024-01-24 14:45:15,0.0
4115,-600,515,-106,102,-2,2024-01-24 14:45:15,0.0
4250,-902,610,-47,41,16,2024-01-24 14:45:16,0.0
4234,-603,381,3,-180,44,2024-01-24 14:45:16,0.0
4485,-608,334,5,-14,4,2024-01-24 14:45:16,0.0
4235,-535,380,-38,23,8,2024-01-24 14:45:17,0.0
4295,-746,411,-14,33,-10,2024-01-24 14:45:17,0.0
4235,-517,428,-5,-62,39,2024-01-24 14:45:17,0.0
4242,-664,524,30,-47,14,2024-01-24 14:45:17,0.0
4321,-648,446,39,-55,18,2024-01-24 14:45:17,0.0
4288,-658,461,47,-68,22,2024-01-24 14:45:17,0.0
4316,-632,449,46,-53,11,2024-01-24 14:45:17,0.0
4280,-616,393,39,19,9,2024-01-24 14:45:17,0.0
4346,-618,326,-21,71,-8,2024-01-24 14:45:17,0.0
4298,-599,325,-43,85,-3,2024-01-24 14:45:17,0.0
4149,-635,232,-65,-1,0,2024-01-24 14:45:17,0.0
3980,-651,198,-66,-119,45,2024-01-24 14:45:17,0.0
3250,-479,583,-154,-574,117,2024-01-24 14:45:17,0.0
4079,-581,99,-246,-891,202,2024-01-24 14:45:17,0.0
4472,-772,3,-238,-710,102,2024-01-24 14:45:17,0.0
3858,-756,76,-204,-623,125,2024-01-24 14:45:17,0.0
3853,-518,-220,-294,-820,100,2024-01-24 14:45:17,0.0
3963,-783,-498,-240,-920,52,2024-01-24 14:45:17,0.0
4317,-564,-324,-340,-640,85,2024-01-24 14:45:18,0.0
3912,-632,-891,-246,-766,-74,2024-01-24 14:45:18,0.0
4396,-945,-587,-170,-138,-69,2024-01-24 14:45:18,0.0
4189,-676,-547,-92,-180,17,2024-01-24 14:45:18,0.0
4016,-616,-812,16,176,-99,2024-01-24 14:45:18,0.0
4699,-610,-843,-83,-146,-10,2024-01-24 14:45:18,0.0
3958,-685,-817,-61,297,-56,2024-01-24 14:45:18,0.0
4394,-475,-688,-8,146,78,2024-01-24 14:45:18,0.0
4102,-927,-732,-94,233,-34,2024-01-24 14:45:18,0.0
4315,-584,-789,-48,132,46,2024-01-24 14:45:18,0.0
4328,-859,-833,-53,188,30,2024-01-24 14:45:18,0.0
4258,-552,-871,-92,166,26,2024-01-24 14:45:18,0.0
4685,-838,-817,-155,301,-86,2024-01-24 14:45:18,0.0
4825,-862,-754,-15,374,-49,2024-01-24 14:45:18,0.0
4455,-588,-831,-27,502,-115,2024-01-24 14:45:18,0.0
4568,-504,-545,-12,416,-75,2024-01-24 14:45:18,0.0
4841,-714,-421,91,634,-57,2024-01-24 14:45:18,0.0
5136,-622,-109,150,762,-94,2024-01-24 14:45:18,0.0
4880,-575,444,88,815,-150,2024-01-24 14:45:19,0.0
4694,-695,737,104,923,-131,2024-01-24 14:45:19,0.0
4124,-363,863,78,927,-72,2024-01-24 14:45:19,0.0
3985,-323,1054,98,631,-88,2024-01-24 14:45:19,0.0
4208,-331,1033,79,663,-83,2024-01-24 14:45:19,0.0
3935,-371,1426,-8,567,-55,2024-01-24 14:45:19,0.0
4205,-270,1326,67,308,-60,2024-01-24 14:45:19,0.0
3903,-278,1511,53,296,3,2024-01-24 14:45:19,0.0
4085,-128,1646,5,274,-8,2024-01-24 14:45:19,0.0
3747,-311,1734,33,335,21,2024-01-24 14:45:19,0.0
3967,-342,1856,34,307,-73,2024-01-24 14:45:19,0.0
3875,-230,1899,2,240,-28,2024-01-24 14:45:19,0.0
3800,-230,2035,22,64,-18,2024-01-24 14:45:19,0.0
3866,-132,1899,11,-171,7,2024-01-24 14:45:19,0.0
4016,-326,1791,-42,-104,2,2024-01-24 14:45:19,0.0
3815,-274,1810,-31,-250,16,2024-01-24 14:45:19,0.0
4104,-240,1674,-38,-151,27,2024-01-24 14:45:19,0.0
4038,-283,1642,-27,-166,22,2024-01-24 14:45:19,0.0
4039,-216,1610,-37,-144,3,2024-01-24 14:45:20,0.0
4011,-277,1609,-38,-124,17,2024-01-24 14:45:20,0.0
4093,-292,1548,-38,-75,13,2024-01-24 14:45:20,0.0
4000,-271,1596,-41,-58,3,2024-01-24 14:45:20,0.0
4141,-244,1588,-42,-1,8,2024-01-24 14:45:20,0.0
4083,-312,1520,-72,105,-25,2024-01-24 14:45:20,0.0
3860,-201,1822,-55,10,5,2024-01-24 14:45:20,0.0
4173,-291,1563,-32,-87,15,2024-01-24 14:45:20,0.0
3951,-235,1693,-36,-30,13,2024-01-24 14:45:20,0.0
4114,-277,1519,-3,-6,14,2024-01-24 14:45:20,0.0
4061,-164,1554,-51,120,55,2024-01-24 14:45:20,0.0
3924,-200,1728,-16,-21,26,2024-01-24 14:45:20,0.0
4064,-278,1789,-53,-107,22,2024-01-24 14:45:20,0.0
3936,-429,1630,-8,-91,57,2024-01-24 14:45:20,0.0
3942,-265,1596,8,-73,58,2024-01-24 14:45:20,0.0
4022,-319,1632,-37,-121,68,2024-01-24 14:45:20,0.0
3915,-298,1614,-36,-166,46,2024-01-24 14:45:20,0.0
4080,-236,1682,-76,-162,37,2024-01-24 14:45:21,0.0
3928,-179,1617,-90,-184,63,2024-01-24 14:45:21,0.0
3998,-124,1486,-145,-308,82,2024-01-24 14:45:21,0.0
3823,-357,1501,-196,-511,123,2024-01-24 14:45:21,0.0
4031,-202,1490,-264,-760,155,2024-01-24 14:45:21,0.0
3659,-293,1504,-318,-1074,193,2024-01-24 14:45:21,0.0
4369,-376,1245,-322,-1479,285,2024-01-24 14:45:21,0.0
5253,-866,52,-289,-1637,389,2024-01-24 14:45:21,0.0
5741,-732,-123,-172,-621,242,2024-01-24 14:45:21,
4643,-859,-150,-196,-647,109,2024-01-24 14:45:21,0.0
5066,-961,-521,-251,-658,150,2024-01-24 14:45:21,0.0
4879,-1038,-609,-283,-593,92,2024-01-24 14:45:21,0.0
4400,-915,-927,-154,-739,124,2024-01-24 14:45:21,0.0
4491,-874,-846,-153,-755,102,2024-01-24 14:45:21,0.0
4251,-1099,-778,-38,-677,91,2024-01-24 14:45:21,0.0
4261,-980,-1230,17,-547,45,2024-01-24 14:45:21,0.0
4572,-968,-1094,132,7,44,2024-01-24 14:45:21,0.0
4166,-883,-935,123,425,-217,2024-01-24 14:45:21,0.0
3880,-937,-864,169,910,-100,2024-01-24 14:45:22,0.0
3761,-826,-738,204,806,-207,2024-01-24 14:45:22,0.0
3884,-751,-276,240,755,-111,2024-01-24 14:45:22,0.0
3721,-806,-586,315,868,-177,2024-01-24 14:45:22,0.0
3443,-675,-287,222,1065,-193,2024-01-24 14:45:22,0.0
3580,-401,-225,244,819,-125,2024-01-24 14:45:22,0.0
3442,-506,116,30,387,-157,2024-01-24 14:45:22,0.0
3832,-506,107,-63,109,-55,2024-01-24 14:45:22,0.0
4235,-524,345,-62,-27,-23,2024-01-24 14:45:22,0.0
4234,-802,301,-51,-104,-2,2024-01-24 14:45:22,0.0
4122,-798,246,55,-308,58,2024-01-24 14:45:22,0.0
4433,-693,-15,149,-331,97,2024-01-24 14:45:22,0.0
4305,-482,143,130,74,-45,2024-01-24 14:45:22,0.0
4279,-524,338,25,60,4,2024-01-24 14:45:22,0.0
4178,-699,407,27,-121,31,2024-01-24 14:45:23,0.0
4395,-514,182,11,-144,34,2024-01-24 14:45:23,0.0
4299,-541,210,-20,-30,11,2024-01-24 14:45:23,0.0
4378,-458,232,-38,-72,39,2024-01-24 14:45:23,0.0
4305,-627,272,-83,-34,6,2024-01-24 14:45:23,0.0
4388,-585,169,-95,-85,12,2024-01-24 14:45:23,0.0
4323,-681,287,-110,-38,11,2024-01-24 14:45:23,0.0
4318,-624,282,-94,3,0,2024-01-24 14:45:23,0.0
4296,-648,312,-92,-15,25,2024-01-24 14:45:23,0.0
4332,-590,253,-117,-3,4,2024-01-24 14:45:23,0.0
4246,-768,314,-74,44,7,2024-01-24 14:45:23,0.0
4332,-553,308,-55,-1,19,2024-01-24 14:45:23,0.0
4337,-686,281,-49,10,10,2024-01-24 14:45:23,0.0
4269,-536,269,-55,57,-1,2024-01-24 14:45:23,0.0
4335,-569,282,-41,18,4,2024-01-24 14:45:23,0.0
4249,-715,382,-13,-18,19,2024-01-24 14:45:23,0.0
4377,-612,364,0,-37,2,2024-01-24 14:45:23,0.0
4258,-621,438,-12,14,16,2024-01-24 14:45:23,0.0
4355,-682,403,-23,21,17,2024-01-24 14:45:23,0.0
4302,-562,339,-77,103,-1,2024-01-24 14:45:23,0.0
4259,-521,517,-180,84,-32,2024-01-24 14:45:23,0.0
4215,-636,478,-231,4,-42,2024-01-24 14:45:24,0.0
4320,-641,378,-218,45,-29,2024-01-24 14:45:24,0.0
4339,-703,438,-190,134,-30,2024-01-24 14:45:24,0.0
4224,-728,484,-84,58,-10,2024-01-24 14:45:24,0.0
4267,-699,472,-29,13,12,2024-01-24 14:45:24,0.0
4327,-407,597,-43,62,-4,2024-01-24 14:45:24,0.0
4197,-722,503,-60,-55,-4,2024-01-24 14:45:24,0.0
4233,-700,528,17,-92,18,2024-01-24 14:45:24,0.0
4401,-694,610,75,-42,53,2024-01-24 14:45:24,0.0
4207,-563,624,71,44,34,2024-01-24 14:45:24,0.0
4284,-313,504,-51,14,-1,2024-01-24 14:45:24,0.0
4307,-657,480,-99,-36,-9,2024-01-24 14:45:24,0.0
4205,-786,559,-16,-51,13,2024-01-24 14:45:24,0.0
4210,-663,548,16,-86,44,2024-01-24 14:45:24,0.0
4274,-595,355,-29,-59,27,2024-01-24 14:45:25,0.0
3859,-537,109,-148,-273,67,2024-01-24 14:45:27,0.0
3947,-478,106,-314,-436,139,2024-01-24 14:45:27,0.0
3208,-404,-202,-468,-745,239,2024-01-24 14:45:27,0.0
3731,-945,-55,-393,-1073,346,2024-01-24 14:45:27,0.0
4286,-803,-286,-376,-940,195,2024-01-24 14:45:27,0.0
3945,-534,-590,-374,-984,43,2024-01-24 14:45:27,0.0
4482,-807,-419,-349,-835,66,2024-01-24 14:45:27,0.0
3720,-1003,-833,16,-348,10,2024-01-24 14:45:27,0.0
3513,-440,-776,11,-130,-205,2024-01-24 14:45:27,0.0
3900,-247,1834,-59,8,22,2024-01-24 14:45:27,0.0
3967,-276,1861,-67,3,9,2024-01-24 14:45:27,0.0
3910,-265,1841,-57,24,18,2024-01-24 14:45:27,0.0
3901,-273,1869,-69,20,14,2024-01-24 14:45:27,0.0
3869,-332,1889,-64,7,-2,2024-01-24 14:45:27,0.0
3930,-298,1890,-56,8,11,2024-01-24 14:45:27,0.0
3919,-284,1924,-39,-5,3,2024-01-24 14:45:27,0.0
3915,-268,1918,-50,-42,23,2024-01-24 14:45:27,0.0
3810,-280,1953,-42,-33,21,2024-01-24 14:45:27,0.0
3877,-262,1957,-51,-118,40,2024-01-24 14:45:27,0.0
3797,-272,1918,-65,-206,54,2024-01-24 14:45:27,0.0
3770,-288,1824,-121,-340,86,2024-01-24 14:45:27,0.0
3730,-233,1819,-132,-424,109,2024-01-24 14:45:27,0.0
3780,-297,1808,-190,-603,81,2024-01-24 14:45:27,0.0
3658,-294,1650,-245,-860,165,2024-01-24 14:45:27,0.0
3989,-314,1470,-303,-1061,311,2024-01-24 14:45:27,0.0
4106,-258,1150,-403,-1497,282,2024-01-24 14:45:28,0.0
4836,-549,1150,-466,-1964,227,2024-01-24 14:45:28,0.0
5261,-1158,-143,-333,-2092,224,2024-01-24 14:45:28,0.0
5167,-1097,-1251,-205,-1476,170,2024-01-24 14:45:28,0.0
4872,-994,-1238,-1,-487,49,2024-01-24 14:45:28,0.0
4443,-989,-1178,29,-658,177,2024-01-24 14:45:28,0.0
4677,-962,-1495,0,-569,327,2024-01-24 14:45:28,0.0
4674,-1001,-1366,-70,-408,243,2024-01-24 14:45:28,0.0
4475,-1038,-1419,1,-38,240,2024-01-24 14:45:28,0.0
4471,-893,-1165,-62,191,219,2024-01-24 14:45:28,0.0
4035,-1004,-943,-113,56,-63,2024-01-24 14:45:28,0.0
3913,-1400,-985,-28,-68,-178,2024-01-24 14:45:28,0.0
4058,-947,-967,148,432,-179,2024-01-24 14:45:28,0.0
4242,-831,-891,162,675,-150,2024-01-24 14:45:28,0.0
4028,-1065,-509,193,778,-184,2024-01-24 14:45:28,0.0
3536,-791,-559,172,648,-241,2024-01-24 14:45:28,
3610,-684,-536,-24,757,-181,2024-01-24 14:45:28,0.0
4045,-870,-255,-17,768,-179,2024-01-24 14:45:28,0.0
3780,-749,-279,82,610,-102,2024-01-24 14:45:29,0.0
3471,-683,-215,25,395,-138,2024-01-24 14:45:29,0.0
3840,-551,-121,-66,135,-115,2024-01-24 14:45:29,0.0
3942,-527,-24,-128,165,-96,2024-01-24 14:45:29,0.0
3909,-765,20,-87,-90,1,2024-01-24 14:45:29,0.0
4139,-613,157,-58,55,-76,2024-01-24 14:45:29,0.0
4245,-575,42,-1,163,-63,2024-01-24 14:45:29,0.0
4163,-771,171,95,-74,51,2024-01-24 14:45:29,0.0
4516,-540,-96,51,-167,20,2024-01-24 14:45:29,0.0
4479,-732,221,93,260,-41,2024-01-24 14:45:29,0.0
4011,-733,533,167,133,39,2024-01-24 14:45:29,0.0
4353,-509,469,80,-108,13,2024-01-24 14:45:29,0.0
4331,-547,293,49,-63,48,2024-01-24 14:45:30,0.0
4309,-554,350,-10,-53,-5,2024-01-24 14:45:30,0.0
4266,-629,410,-15,47,5,2024-01-24 14:45:30,0.0
4297,-497,337,4,-2,7,2024-01-24 14:45:30,0.0
4257,-498,392,-86,-28,-2,2024-01-24 14:45:30,0.0
4345,-629,392,-130,-18,-17,2024-01-24 14:45:30,0.0
4305,-538,431,-154,-33,13,2024-01-24 14:45:30,0.0
4361,-714,338,-163,50,-16,2024-01-24 14:45:30,0.0
4247,-631,341,-140,155,-25,2024-01-24 14:45:30,0.0
4233,-617,595,-143,-108,0,2024-01-24 14:45:30,0.0
4290,-650,469,-103,-88,21,2024-01-24 14:45:30,0.0
4293,-628,368,-44,14,-2,2024-01-24 14:45:30,0.0
4343,-635,504,-29,-11,10,2024-01-24 14:45:30,0.0
4196,-567,470,-27,-52,26,2024-01-24 14:45:30,0.0
4351,-623,408,-22,-24,24,2024-01-24 14:45:30,0.0
4257,-557,419,3,70,2,2024-01-24 14:45:30,0.0
4279,-653,547,-7,-35,7,2024-01-24 14:45:30,0.0
4291,-627,485,12,-62,14,2024-01-24 14:45:30,0.0
4301,-603,423,16,51,11,2024-01-24 14:45:30,0.0
4237,-622,522,4,-7,15,2024-01-24 14:45:30,0.0
4253,-630,455,-12,-66,8,2024-01-24 14:45:30,0.0
4305,-597,439,-2,23,7,2024-01-24 14:45:31,0.0
4287,-584,513,0,-20,14,2024-01-24 14:45:31,0.0
4252,-606,486,-32,-39,11,2024-01-24 14:45:31,0.0
4270,-614,506,-22,-27,1,2024-01-24 14:45:31,0.0
4333,-591,431,-40,-45,3,2024-01-24 14:45:31,0.0
4297,-593,390,-50,-42,-16,2024-01-24 14:45:31,0.0
4287,-590,314,-79,-42,-23,2024-01-24 14:45:31,0.0
4344,-562,160,-90,73,-26,2024-01-24 14:45:31,0.0
4156,-325,78,-270,2,-24,2024-01-24 14:45:31,0.0
3915,-603,99,-377,-1,133,2024-01-24 14:45:31,0.0
3980,-754,138,-335,-253,186,2024-01-24 14:45:31,0.0
3199,-637,323,-275,-584,167,2024-01-24 14:45:31,0.0
3540,-591,43,-253,-1094,148,2024-01-24 14:45:31,0.0
3829,-874,-256,-106,-1005,74,2024-01-24 14:45:31,0.0
3964,-566,-315,-16,-990,145,2024-01-24 14:45:31,0.0
4265,-834,-236,-50,-635,71,2024-01-24 14:45:31,0.0
4386,-538,-636,-112,-602,10,2024-01-24 14:45:31,0.0
3835,-684,-673,-90,-456,-56,2024-01-24 14:45:31,0.0
4129,-893,-534,-222,-277,-161,2024-01-24 14:45:31,0.0
4603,-606,-651,-61,149,-132,2024-01-24 14:45:31,0.0
4321,-671,-726,-101,116,-110,2024-01-24 14:45:32,0.0
4424,-839,-799,-26,335,-70,2024-01-24 14:45:32,0.0
4448,-603,-567,-2,309,-78,2024-01-24 14:45:32,0.0
4305,-552,-587,-39,145,-22,2024-01-24 14:45:32,0.0
4318,-689,-583,-39,85,32,2024-01-24 14:45:32,0.0
4651,-730,-754,-53,312,-33,2024-01-24 14:45:32,0.0
4588,-720,-653,16,444,-72,2024-01-24 14:45:32,0.0
4579,-684,-519,-76,309,-43,2024-01-24 14:45:32,0.0
4807,-670,-357,19,698,-9,2024-01-24 14:45:32,0.0
5225,-676,-257,66,686,-93,2024-01-24 14:45:32,0.0
4823,-839,326,134,892,-74,2024-01-24 14:45:32,0.0
4629,-550,505,93,852,-143,2024-01-24 14:45:32,0.0
4009,-497,1181,122,935,-114,2024-01-24 14:45:32,0.0
4303,-427,915,62,555,-48,2024-01-24 14:45:32,0.0
4147,-419,1294,89,612,-98,2024-01-24 14:45:32,0.0
4030,-209,1285,142,727,-109,2024-01-24 14:45:32,0.0
3891,-223,1487,153,479,-11,2024-01-24 14:45:32,0.0
4189,-358,1339,166,263,-11,2024-01-24 14:45:33,0.0
3870,-259,1601,154,388,-7,2024-01-24 14:45:33,0.0
3751,-180,1746,93,358,44,2024-01-24 14:45:33,0.0
3917,-264,2061,83,269,79,2024-01-24 14:45:33,0.0
3937,-141,1924,-10,100,27,2024-01-24 14:45:33,0.0
3864,-303,1991,-37,-25,-37,2024-01-24 14:45:33,0.0
3968,-308,1770,-59,-96,-44,2024-01-24 14:45:33,0.0
3993,-294,1765,-24,-40,25,2024-01-24 14:45:33,0.0
3940,-209,1764,-26,-86,10,2024-01-24 14:45:33,0.0
3998,-143,1780,-39,-42,23,2024-01-24 14:45:33,0.0
3868,-330,1811,-13,-36,18,2024-01-24 14:45:33,0.0
3960,-321,1779,-41,-97,24,2024-01-24 14:45:33,0.0
3967,-280,1705,-59,-69,15,2024-01-24 14:45:33,0.0
3985,-275,1699,-42,-88,6,2024-01-24 14:45:33,0.0
4048,-312,1703,-40,-55,-13,2024-01-24 14:45:33,0.0
3986,-246,1695,-46,-7,7,2024-01-24 14:45:33,0.0
3990,-264,1746,-56,-23,-1,2024-01-24 14:45:33,0.0
3975,-295,1720,-28,-8,-3,2024-01-24 14:45:33,0.0
3952,-273,1762,-54,-38,-6,2024-01-24 14:45:34,0.0
3976,-267,1738,-60,-29,4,2024-01-24 14:45:34,0.0
3966,-286,1739,-40,-46,6,2024-01-24 14:45:34,0.0
3985,-214,1695,-54,-33,-5,2024-01-24 14:45:34,0.0
3957,-284,1780,-35,-28,1,2024-01-24 14:45:34,0.0
3955,-254,1725,-46,-47,-5,2024-01-24 14:45:34,0.0
4036,-311,1743,-39,-19,10,2024-01-24 14:45:34,0.0
3946,-216,1724,-35,-12,-3,2024-01-24 14:45:34,0.0
3967,-246,1781,-40,-45,11,2024-01-24 14:45:34,0.0
3934,-285,1715,-25,-42,16,2024-01-24 14:45:34,
3951,-239,1769,-34,-57,14,2024-01-24 14:45:34,0.0
3894,-211,1747,-73,-120,31,2024-01-24 14:45:34,0.0
3775,-247,1788,-76,-228,50,2024-01-24 14:45:34,0.0
3906,-194,1777,-118,-365,91,2024-01-24 14:45:34,0.0
3806,-227,1702,-143,-409,111,2024-01-24 14:45:34,0.0
4017,-256,1589,-183,-598,153,2024-01-24 14:45:34,0.0
3837,-373,1313,-182,-867,161,2024-01-24 14:45:34,0.0
4011,-59,1408,-267,-1182,259,2024-01-24 14:45:35,0.0
4459,-403,980,-397,-1664,233,2024-01-24 14:45:35,0.0
5026,-866,210,-252,-1651,294,2024-01-24 14:45:35,0.0
5258,-572,-318,-223,-1285,279,2024-01-24 14:45:35,0.0
4813,-902,-585,-108,-945,142,2024-01-24 14:45:35,0.0
4748,-943,-872,10,-782,126,2024-01-24 14:45:35,0.0
4953,-1048,-911,3,-449,137,2024-01-24 14:45:35,0.0
4849,-993,-924,66,-331,63,2024-01-24 14:45:35,0.0
4704,-826,-1132,85,-178,130,2024-01-24 14:45:35,0.0
4410,-989,-945,-104,-386,146,2024-01-24 14:45:35,0.0
4163,-1037,-959,-17,-470,211,2024-01-24 14:45:35,0.0
4456,-948,-815,15,-51,161,2024-01-24 14:45:35,0.0
4179,-1005,-823,62,570,-101,2024-01-24 14:45:35,0.0
3726,-1003,-656,113,794,-190,2024-01-24 14:45:35,0.0
3930,-790,-511,128,714,-141,2024-01-24 14:45:35,0.0
4028,-686,-509,20,774,-118,2024-01-24 14:45:35,0.0
4001,-870,-337,-5,899,-154,2024-01-24 14:45:35,0.0
3747,-724,-240,0,847,-210,2024-01-24 14:45:35,0.0
3467,-631,-180,-31,849,-147,2024-01-24 14:45:36,0.0
3312,-385,-112,-78,617,-224,2024-01-24 14:45:36,0.0
3839,-646,90,0,347,-153,2024-01-24 14:45:36,0.0
4021,-759,204,81,306,-108,2024-01-24 14:45:36,0.0
4041,-608,572,136,138,-37,2024-01-24 14:45:36,0.0
4218,-368,459,88,149,-38,2024-01-24 14:45:36,0.0
4083,-628,691,147,186,0,2024-01-24 14:45:36,0.0
4241,-597,677,43,-114,-6,2024-01-24 14:45:36,0.0
4397,-598,427,10,-79,-11,2024-01-24 14:45:37,0.0
4292,-478,614,-63,-61,7,2024-01-24 14:45:39,0.0
4280,-391,695,-180,-97,66,2024-01-24 14:45:39,0.0
4247,-356,575,-10,48,19,2024-01-24 14:45:39,0.0
4297,-463,609,-108,-93,-6,2024-01-24 14:45:39,0.0
4355,-567,607,-105,-14,-4,2024-01-24 14:45:39,0.0
4207,-614,670,-83,-50,-3,2024-01-24 14:45:39,0.0
4278,-554,695,-64,-30,-9,2024-01-24 14:45:39,0.0
4260,-516,585,-53,-96,9,2024-01-24 14:45:39,0.0
4246,-473,549,-8,-115,-2,2024-01-24 14:45:39,0.0
3971,-512,-45,-219,-115,-6,2024-01-24 14:45:39,0.0
3846,-438,-3,-337,-313,106,2024-01-24 14:45:39,0.0
2886,-505,-247,-376,-664,247,2024-01-24 14:45:39,0.0
2630,-733,-6,-349,-1002,218,2024-01-24 14:45:39,0.0
4163,-714,-37,-369,-1243,90,2024-01-24 14:45:39,0.0
4414,-524,-68,-270,-801,-29,2024-01-24 14:45:39,0.0
3492,-676,-345,-312,-680,65,2024-01-24 14:45:39,0.0
4446,-471,-279,-385,-715,-7,2024-01-24 14:45:40,0.0
4207,-968,-533,-151,208,-175,2024-01-24 14:45:40,0.0
4445,-861,-235,68,21,-71,2024-01-24 14:45:40,0.0
4221,-590,-746,6,94,-73,2024-01-24 14:45:40,0.0
4400,-380,-701,-80,-60,-67,2024-01-24 14:45:40,0.0
4648,-919,-674,-69,67,81,2024-01-24 14:45:40,0.0
4999,-814,-659,11,150,92,2024-01-24 14:45:40,0.0
4966,-883,-622,-4,175,64,2024-01-24 14:45:40,0.0
5036,-772,-747,62,336,118,2024-01-24 14:45:40,0.0
4635,-831,-467,-31,526,-2,2024-01-24 14:45:40,0.0
4959,-830,-405,131,751,-82,2024-01-24 14:45:40,0.0
4948,-674,57,204,895,-127,2024-01-24 14:45:40,0.0
4686,-772,395,233,763,-70,2024-01-24 14:45:40,0.0
4466,-615,635,230,1040,-104,2024-01-24 14:45:40,0.0
3901,-331,1025,163,984,-90,2024-01-24 14:45:40,0.0
3927,-636,999,232,775,-17,2024-01-24 14:45:40,0.0
4163,-370,1329,209,573,-23,2024-01-24 14:45:40,0.0
4026,-465,1427,159,588,-20,2024-01-24 14:45:41,0.0
3480,-261,1733,166,359,41,2024-01-24 14:45:41,0.0
4266,-285,1653,51,115,-43,2024-01-24 14:45:41,0.0
3987,-386,1703,12,159,-65,2024-01-24 14:45:41,0.0
3941,-400,1730,-58,-55,-54,2024-01-24 14:45:41,0.0
4007,-304,1638,-55,-53,-12,2024-01-24 14:45:41,0.0
3978,-285,1560,-32,-103,-10,2024-01-24 14:45:41,0.0
4065,-270,1544,-76,-83,-43,2024-01-24 14:45:41,0.0
4078,-436,1490,-45,-83,1,2024-01-24 14:45:41,0.0
4139,-408,1417,-67,-95,-10,2024-01-24 14:45:41,0.0
4057,-408,1487,-46,-36,-4,2024-01-24 14:45:41,0.0
4060,-324,1468,-62,-63,-2,2024-01-24 14:45:41,0.0
4046,-364,1469,-60,-41,-3,2024-01-24 14:45:41,0.0
4090,-367,1495,-44,-46,7,2024-01-24 14:45:41,0.0
4119,-363,1416,-40,-35,5,2024-01-24 14:45:41,0.0
4141,-413,1389,-41,20,-22,2024-01-24 14:45:41,0.0
4059,-349,1538,-55,-7,-4,2024-01-24 14:45:41,0.0
4078,-362,1488,-49,-12,-14,2024-01-24 14:45:41,0.0
4018,-299,1582,-41,27,-16,2024-01-24 14:45:42,0.0
4072,-300,1539,-52,-26,-6,2024-01-24 14:45:42,0.0
4123,-335,1515,-47,-4,-3,2024-01-24 14:45:42,0.0
4042,-342,1546,-36,-20,4,2024-01-24 14:45:42,0.0
4058,-322,1536,-54,-24,-3,2024-01-24 14:45:42,0.0
4009,-322,1578,-36,-18,9,2024-01-24 14:45:42,0.0
4156,-291,1526,-52,-31,0,2024-01-24 14:45:42,0.0
4012,-323,1492,-45,-6,4,2024-01-24 14:45:42,0.0
4053,-314,1542,-38,-25,8,2024-01-24 14:45:42,0.0
4055,-329,1531,-41,0,12,2024-01-24 14:45:42,0.0
4023,-350,1583,-45,-20,0,2024-01-24 14:45:42,0.0
4074,-308,1538,-45,-26,23,2024-01-24 14:45:42,0.0
4006,-345,1527,-47,-47,20,2024-01-24 14:45:42,0.0
4032,-331,1570,-53,-105,12,2024-01-24 14:45:42,0.0
3974,-273,1552,-77,-177,44,2024-01-24 14:45:42,
3734,-319,1510,-75,-293,66,2024-01-24 14:45:42,0.0
3991,-340,1526,-120,-460,103,2024-01-24 14:45:42,0.0
3833,-304,1538,-150,-637,162,2024-01-24 14:45:43,0.0
3993,-255,1418,-229,-1011,267,2024-01-24 14:45:43,0.0
4101,-215,1264,-289,-1246,235,2024-01-24 14:45:43,0.0
4727,-721,616,-308,-1661,224,2024-01-24 14:45:43,0.0
4953,-785,-131,-287,-1731,262,2024-01-24 14:45:43,0.0
5300,-968,-848,-228,-1409,270,2024-01-24 14:45:43,0.0
4787,-913,-904,-67,-707,126,2024-01-24 14:45:43,0.0
4501,-1078,-1062,51,-652,244,2024-01-24 14:45:43,0.0
4816,-1041,-1236,65,-453,246,2024-01-24 14:45:43,0.0
4825,-1028,-1417,9,-352,168,2024-01-24 14:45:43,0.0
4911,-1157,-1462,59,-114,86,2024-01-24 14:45:43,0.0
4103,-1010,-1362,-37,-432,123,2024-01-24 14:45:43,0.0
4294,-1131,-1012,-29,-530,117,2024-01-24 14:45:43,0.0
4528,-934,-915,9,37,-26,2024-01-24 14:45:43,0.0
4097,-1120,-1017,140,501,-214,2024-01-24 14:45:43,0.0
3776,-805,-517,47,892,-326,2024-01-24 14:45:43,0.0
3867,-758,-660,91,882,-308,2024-01-24 14:45:43,0.0
3721,-850,-546,106,1011,-142,2024-01-24 14:45:43,0.0
3596,-851,-481,126,866,-216,2024-01-24 14:45:44,0.0
3231,-562,-459,109,951,-155,2024-01-24 14:45:44,0.0
3303,-642,-111,57,725,-166,2024-01-24 14:45:44,0.0
4003,-527,-142,-56,323,-178,2024-01-24 14:45:44,0.0
4026,-724,-69,12,599,-38,2024-01-24 14:45:44,0.0
3841,-539,161,4,229,-71,2024-01-24 14:45:44,0.0
4244,-722,325,89,80,21,2024-01-24 14:45:44,0.0
4139,-666,361,124,-61,66,2024-01-24 14:45:44,0.0
4261,-610,291,174,-259,127,2024-01-24 14:45:44,0.0
4637,-303,217,41,-203,19,2024-01-24 14:45:44,0.0
4155,-691,419,-48,191,-47,2024-01-24 14:45:44,0.0
4208,-769,491,53,100,47,2024-01-24 14:45:44,0.0
4263,-574,589,-3,39,3,2024-01-24 14:45:44,0.0
4263,-589,576,-42,-76,2,2024-01-24 14:45:44,0.0
4218,-608,566,-88,-32,0,2024-01-24 14:45:44,0.0
4434,-656,526,-160,8,-6,2024-01-24 14:45:44,0.0
4097,-542,648,-126,-3,-2,2024-01-24 14:45:44,0.0
4320,-646,518,-87,-112,-6,2024-01-24 14:45:45,0.0
4327,-679,588,-73,-64,-7,2024-01-24 14:45:45,0.0
4244,-589,619,-3,-25,29,2024-01-24 14:45:45,0.0
4250,-637,639,-16,-62,21,2024-01-24 14:45:45,0.0
4368,-572,650,-86,-111,20,2024-01-24 14:45:45,0.0
4207,-619,111,-106,146,-33,2024-01-24 14:45:45,0.0
4302,-603,749,-127,49,-41,2024-01-24 14:45:45,0.0
4065,-573,733,-62,-121,5,2024-01-24 14:45:45,0.0
4552,-665,431,-59,-106,-9,2024-01-24 14:45:45,0.0
4176,-579,346,9,79,-9,2024-01-24 14:45:45,0.0
4249,-541,763,-71,-178,-4,2024-01-24 14:45:45,0.0
4227,-502,535,-84,-231,-2,2024-01-24 14:45:45,0.0
4298,-435,476,-223,-293,-22,2024-01-24 14:45:45,0.0
4228,-660,450,-212,-137,21,2024-01-24 14:45:45,0.0
4352,-671,563,-179,-261,-10,2024-01-24 14:45:45,0.0
4332,-557,459,-125,-100,29,2024-01-24 14:45:45,0.0
4601,-478,250,-167,-1,-35,2024-01-24 14:45:45,0.0
4140,-570,575,-215,-53,-23,2024-01-24 14:45:45,0.0
4309,-554,415,-170,-2,-8,2024-01-24 14:45:46,0.0
4259,-542,274,-175,-74,-18,2024-01-24 14:45:46,0.0
4556,-797,131,-129,36,-34,2024-01-24 14:45:46,0.0
4430,-627,-283,20,390,-48,2024-01-24 14:45:46,0.0
4205,-500,-491,-28,381,26,2024-01-24 14:45:46,0.0
3197,-442,186,-170,48,37,2024-01-24 14:45:46,0.0
2935,-574,-232,-194,-869,224,2024-01-24 14:45:46,0.0
4671,-489,-81,-484,-786,44,2024-01-24 14:45:46,0.0
3669,-607,723,-156,-669,-45,2024-01-24 14:45:46,0.0
3210,-653,-111,-97,-827,47,2024-01-24 14:45:46,0.0
4354,-401,-165,-36,-1192,191,2024-01-24 14:45:46,0.0
4197,-721,-315,38,-1115,9,2024-01-24 14:45:46,0.0
4138,-577,-846,-149,-780,18,2024-01-24 14:45:46,0.0
4439,-737,-646,-44,-483,-137,2024-01-24 14:45:46,0.0
4226,-842,-692,69,-240,142,2024-01-24 14:45:46,0.0
4604,-564,-1121,7,153,-37,2024-01-24 14:45:46,0.0
4483,-797,-1181,-80,-133,-98,2024-01-24 14:45:46,0.0
4386,-468,-1334,-80,18,-23,2024-01-24 14:45:46,0.0
4343,-842,-1156,-161,-92,-51,2024-01-24 14:45:47,0.0
4492,-586,-1034,-26,170,-37,2024-01-24 14:45:47,0.0
4266,-654,-1150,33,276,-83,2024-01-24 14:45:47,0.0
4226,-479,-1271,-17,53,15,2024-01-24 14:45:47,0.0
4311,-716,-1116,158,-116,193,2024-01-24 14:45:47,0.0
4768,-644,-1081,2,190,-69,2024-01-24 14:45:47,0.0
4335,-489,-945,49,517,-53,2024-01-24 14:45:47,0.0
4277,-706,-796,15,489,-72,2024-01-24 14:45:47,0.0
4534,-569,-712,82,737,-75,2024-01-24 14:45:47,0.0
4853,-697,-429,142,781,-94,2024-01-24 14:45:47,0.0
4746,-575,-98,82,791,-192,2024-01-24 14:45:47,0.0
4635,-493,111,156,840,-79,2024-01-24 14:45:47,0.0
4146,-355,469,93,756,-114,2024-01-24 14:45:47,0.0
4213,-523,545,142,587,-92,2024-01-24 14:45:47,0.0
4287,-327,593,138,431,-64,2024-01-24 14:45:47,0.0
4363,-164,627,56,433,-47,2024-01-24 14:45:47,0.0
4173,-210,812,24,331,-33,2024-01-24 14:45:47,0.0
4353,-153,885,-26,322,-62,2024-01-24 14:45:48,0.0
4130,-251,948,-58,406,-19,2024-01-24 14:45:48,0.0
4197,-435,1095,-8,368,14,2024-01-24 14:45:48,0.0
4107,-372,1256,-4,346,16,2024-01-24 14:45:48,0.0
4169,-166,1217,-28,369,13,2024-01-24 14:45:48,0.0
4021,-293,1563,-47,258,54,2024-01-24 14:45:48,0.0
4008,-291,1562,-104,109,-14,2024-01-24 14:45:48,0.0
4260,-539,1427,-99,73,-20,2024-01-24 14:45:48,0.0
3903,-459,1399,-92,46,-49,2024-01-24 14:45:48,0.0
3987,-276,1562,-56,-13,24,2024-01-24 14:45:48,
4042,-195,1568,-52,-248,3,2024-01-24 14:45:48,0.0
4376,-344,1337,-34,-111,-17,2024-01-24 14:45:48,0.0
3976,-356,1336,-54,-49,-6,2024-01-24 14:45:48,0.0
4008,-269,1568,-51,-199,15,2024-01-24 14:45:48,0.0
4220,-494,1261,-17,-4,-2,2024-01-24 14:45:48,0.0
4240,-220,1311,-31,5,-10,2024-01-24 14:45:48,0.0
4031,-300,1353,-28,-73,-7,2024-01-24 14:45:48,0.0
4306,-242,1252,-43,11,-22,2024-01-24 14:45:49,0.0
4011,-342,1446,-35,-18,-25,2024-01-24 14:45:49,0.0
4115,-271,1377,-27,-9,-13,2024-01-24 14:45:49,0.0
4128,-289,1376,-46,-37,5,2024-01-24 14:45:49,0.0
4130,-233,1366,-44,-49,9,2024-01-24 14:45:49,0.0
4122,-256,1387,-45,-59,11,2024-01-24 14:45:49,0.0
4105,-274,1376,-38,-63,28,2024-01-24 14:45:49,0.0
4150,-279,1327,-52,-46,13,2024-01-24 14:45:49,0.0
4173,-303,1333,-48,-57,31,2024-01-24 14:45:49,0.0
4087,-246,1365,-46,-54,11,2024-01-24 14:45:49,0.0
4141,-332,1325,-9,-179,61,2024-01-24 14:45:49,0.0
4129,-307,1341,-10,-54,43,2024-01-24 14:45:49,0.0
3911,-314,1277,-17,-165,54,2024-01-24 14:45:49,0.0
4150,-334,1240,-19,-272,50,2024-01-24 14:45:49,0.0
4047,-249,1313,-59,-82,84,2024-01-24 14:45:49,0.0
3876,-197,1340,-81,-382,90,2024-01-24 14:45:49,0.0
3884,-209,1363,-119,-444,150,2024-01-24 14:45:49,0.0
3922,-190,1268,-215,-991,179,2024-01-24 14:45:49,0.0
4289,-420,773,-278,-1446,300,2024-01-24 14:45:50,0.0
4711,-410,531,-315,-1625,267,2024-01-24 14:45:50,0.0
4947,-814,-432,-307,-1885,287,2024-01-24 14:45:50,0.0
5035,-866,-1225,-215,-1364,158,2024-01-24 14:45:50,0.0
4794,-827,-1148,-158,-803,146,2024-01-24 14:45:50,0.0
4562,-1013,-1200,-39,-665,154,2024-01-24 14:45:50,0.0
4535,-880,-1520,58,-318,276,2024-01-24 14:45:50,0.0
4732,-831,-1544,22,-314,206,2024-01-24 14:45:50,0.0
4531,-983,-1507,-87,-454,277,2024-01-24 14:45:50,0.0
4630,-1165,-1586,-88,-246,118,2024-01-24 14:45:50,0.0
4370,-967,-1272,-84,-249,108,2024-01-24 14:45:50,0.0
4077,-907,-1328,-123,101,-9,2024-01-24 14:45:50,0.0
4107,-995,-1213,-88,170,-235,2024-01-24 14:45:50,0.0
3926,-893,-1315,29,427,-34,2024-01-24 14:45:50,0.0
4110,-825,-992,65,662,-27,2024-01-24 14:45:50,0.0
4209,-882,-850,15,792,-225,2024-01-24 14:45:50,0.0
4012,-969,-720,154,1235,-179,2024-01-24 14:45:50,0.0
3527,-871,-482,296,967,-133,2024-01-24 14:45:51,0.0
3282,-643,-578,257,859,-279,2024-01-24 14:45:51,0.0
3036,-426,-431,122,760,-228,2024-01-24 14:45:51,0.0
3649,-695,-193,182,487,-137,2024-01-24 14:45:51,0.0
4103,-682,-235,135,445,-113,2024-01-24 14:45:51,0.0
3839,-569,295,95,285,-47,2024-01-24 14:45:51,0.0
4433,-599,73,41,35,29,2024-01-24 14:45:51,0.0
4283,-629,218,2,21,65,2024-01-24 14:45:51,0.0
4298,-471,234,-46,50,20,2024-01-24 14:45:51,0.0
4334,-306,184,-110,49,-11,2024-01-24 14:45:51,0.0
4352,-604,402,-185,41,-48,2024-01-24 14:45:51,0.0
4239,-825,331,-107,-17,-26,2024-01-24 14:45:51,0.0
4308,-578,405,17,34,22,2024-01-24 14:45:51,0.0
4297,-474,473,-5,-41,24,2024-01-24 14:45:51,0.0
4291,-506,431,-91,-87,-19,2024-01-24 14:45:51,0.0
4324,-543,353,-131,-82,-3,2024-01-24 14:45:51,0.0
4385,-573,455,-120,8,-15,2024-01-24 14:45:51,0.0
4254,-581,526,-124,26,-13,2024-01-24 14:45:51,0.0
4303,-492,439,-172,-2,-52,2024-01-24 14:45:52,0.0
4304,-523,422,-213,45,-44,2024-01-24 14:45:52,0.0
4282,-519,407,-245,28,-39,2024-01-24 14:45:52,0.0
4382,-608,404,-200,-201,-71,2024-01-24 14:45:52,0.0
4354,-626,279,-168,174,-64,2024-01-24 14:45:52,0.0
4186,-520,369,-154,185,-30,2024-01-24 14:45:52,0.0
4046,-410,472,-196,-58,39,2024-01-24 14:45:52,0.0
4646,-845,216,-199,-1,54,2024-01-24 14:45:52,0.0
3895,-519,256,-94,92,110,2024-01-24 14:45:52,0.0
3529,-522,499,-77,-629,329,2024-01-24 14:45:52,0.0
4482,-763,186,-33,-493,267,2024-01-24 14:45:52,0.0
3868,-551,185,-72,-675,227,2024-01-24 14:45:52,0.0
3362,-603,-187,-32,-857,253,2024-01-24 14:45:52,0.0
3624,-765,-279,-90,-1079,97,2024-01-24 14:45:52,0.0
3793,-605,-467,-100,-1009,22,2024-01-24 14:45:52,0.0
3679,-767,-497,-88,-597,-99,2024-01-24 14:45:52,0.0
3646,-967,-696,-69,-712,-44,2024-01-24 14:45:52,0.0
4702,-666,-688,35,-212,97,2024-01-24 14:45:53,0.0
3791,-688,-699,-100,83,-152,2024-01-24 14:45:53,0.0
4393,-1108,-432,-34,234,-58,2024-01-24 14:45:53,0.0
4618,-646,-828,117,310,-124,2024-01-24 14:45:53,0.0
4278,-619,-715,-59,6,-137,2024-01-24 14:45:53,0.0
4715,-1131,-856,17,131,-83,2024-01-24 14:45:53,0.0
4468,-492,-688,-24,73,-19,2024-01-24 14:45:53,0.0
4406,-695,-719,-103,85,-48,2024-01-24 14:45:53,0.0
4558,-928,-813,15,263,-19,2024-01-24 14:45:53,0.0
4655,-890,-504,67,425,23,2024-01-24 14:45:53,0.0
4801,-477,-637,45,645,9,2024-01-24 14:45:53,0.0
5133,-959,-432,97,712,-59,2024-01-24 14:45:53,0.0
5450,-640,-109,187,1086,-120,2024-01-24 14:45:53,0.0
4585,-731,578,213,910,-131,2024-01-24 14:45:53,0.0
4215,-503,847,255,837,-147,2024-01-24 14:45:53,0.0
4053,-380,879,155,753,-214,2024-01-24 14:45:53,0.0
4106,-539,1047,126,631,-182,2024-01-24 14:45:53,0.0
4307,-295,1020,55,608,-28,2024-01-24 14:45:53,0.0
4105,-170,1097,84,812,-66,2024-01-24 14:45:54,0.0
3601,-267,1548,146,397,-159,2024-01-24 14:45:54,0.0
4115,-109,1754,55,284,-17,2024-01-24 14:45:54,0.0
4042,-338,1996,51,362,-11,2024-01-24 14:45:54,0.0
3803,-241,1874,-11,97,-29,2024-01-24 14:45:54,
