acceleration_x,acceleration_y,acceleration_z,gyroscope_x,gyroscope_y,gyroscope_z,timestamp,label
4413,-208,-990,74,-69,54,2024-01-24 15:25:18,0.0
4157,-152,-1041,-144,-96,-43,2024-01-24 15:25:18,0.0
4431,-359,-1001,-56,-34,26,2024-01-24 15:25:18,0.0
4090,-130,-1037,-66,-2,-24,2024-01-24 15:25:18,0.0
4392,-275,-880,2,12,-14,2024-01-24 15:25:19,0.0
4119,-162,-799,-22,-125,-4,2024-01-24 15:25:19,0.0
4063,8,-527,-170,10,11,2024-01-24 15:25:19,0.0
4048,352,-274,-554,-170,-22,2024-01-24 15:25:19,0.0
6204,-217,-336,-479,-382,86,2024-01-24 15:25:19,0.0
6500,-28,-1240,-52,-297,303,2024-01-24 15:25:19,0.0
4083,8,-1318,-451,-135,109,2024-01-24 15:25:19,0.0
4042,-1156,-1683,-468,-454,-92,2024-01-24 15:25:19,0.0
4816,427,-1081,-384,180,-194,2024-01-24 15:25:19,0.0
3627,83,-1046,-505,-37,-183,2024-01-24 15:25:19,0.0
4387,-199,-961,-458,-61,-193,2024-01-24 15:25:19,0.0
3633,76,-685,-405,200,-172,2024-01-24 15:25:19,0.0
3784,81,-739,-516,-90,-247,2024-01-24 15:25:19,0.0
3527,93,-927,-252,153,-134,2024-01-24 15:25:19,0.0
2968,152,-403,-147,-37,-111,2024-01-24 15:25:19,0.0
3750,542,-304,-213,47,9,2024-01-24 15:25:19,0.0
4993,461,-98,-46,119,281,2024-01-24 15:25:19,0.0
4336,-500,-1556,44,-254,363,2024-01-24 15:25:20,0.0
5884,428,-2156,-146,-767,252,2024-01-24 15:25:20,0.0
4538,-802,-1962,595,526,128,2024-01-24 15:25:20,0.0
3896,989,-1176,327,-553,312,2024-01-24 15:25:20,0.0
5367,-745,-1497,156,400,403,2024-01-24 15:25:20,0.0
3866,-496,-887,174,-99,186,2024-01-24 15:25:20,0.0
3683,150,-956,23,107,362,2024-01-24 15:25:20,0.0
2601,-262,-570,-82,296,442,2024-01-24 15:25:20,0.0
3079,-774,-201,-159,180,208,2024-01-24 15:25:20,0.0
3604,34,-230,-82,115,-8,2024-01-24 15:25:20,0.0
5355,-869,-756,-144,-540,-44,2024-01-24 15:25:20,0.0
6333,-344,-2600,243,-125,-439,2024-01-24 15:25:20,0.0
4112,-401,-1434,-324,144,-289,2024-01-24 15:25:20,0.0
4462,-1130,-1595,-12,-204,-297,2024-01-24 15:25:20,0.0
4777,-148,-1594,219,15,-359,2024-01-24 15:25:20,0.0
3962,471,-1356,203,-40,-321,2024-01-24 15:25:20,0.0
3860,-71,-885,-11,-162,-232,2024-01-24 15:25:20,0.0
3027,-74,-831,-35,-72,-359,2024-01-24 15:25:21,0.0
2942,315,-430,-18,-89,-235,2024-01-24 15:25:21,0.0
3367,67,-506,-14,-11,-71,2024-01-24 15:25:21,0.0
4514,166,-511,154,-122,96,2024-01-24 15:25:21,0.0
5943,40,-2411,-67,-841,257,2024-01-24 15:25:21,0.0
5321,-732,-2448,224,-105,42,2024-01-24 15:25:21,0.0
3517,-307,-1659,863,-188,140,2024-01-24 15:25:21,0.0
4711,-25,-2093,691,-247,96,2024-01-24 15:25:21,0.0
3871,-602,-1073,659,389,198,2024-01-24 15:25:21,0.0
3551,-900,-1111,747,-120,130,2024-01-24 15:25:21,0.0
3310,-539,-1052,969,30,55,2024-01-24 15:25:21,0.0
2803,-128,-786,705,187,110,2024-01-24 15:25:21,0.0
3092,-665,-614,403,-36,-106,2024-01-24 15:25:21,0.0
4798,-468,-879,200,55,-286,2024-01-24 15:25:21,0.0
3912,-494,-1095,-20,-10,-381,2024-01-24 15:25:21,0.0
6499,-1359,-1615,388,-668,-198,2024-01-24 15:25:21,0.0
4918,-264,-2163,354,304,-373,2024-01-24 15:25:21,0.0
3371,-207,-1843,-275,-412,-74,2024-01-24 15:25:22,0.0
4810,-595,-2087,-78,47,-270,2024-01-24 15:25:22,0.0
4575,-105,-1521,-68,183,-307,2024-01-24 15:25:22,0.0
3935,357,-1675,-127,71,-200,2024-01-24 15:25:22,0.0
4035,-57,-1025,-322,-39,-218,2024-01-24 15:25:22,0.0
3254,-239,-890,-210,111,-285,2024-01-24 15:25:22,0.0
2912,359,-661,-126,-44,-188,2024-01-24 15:25:22,0.0
3264,108,-556,-68,162,7,2024-01-24 15:25:22,0.0
4099,-559,-665,289,114,128,2024-01-24 15:25:22,0.0
6043,690,-2237,79,-749,102,2024-01-24 15:25:22,0.0
4810,-1017,-2560,136,242,143,2024-01-24 15:25:22,0.0
3790,376,-1332,527,-202,-1,2024-01-24 15:25:22,0.0
5197,-723,-2076,540,327,180,2024-01-24 15:25:22,0.0
4245,-558,-1133,624,530,159,2024-01-24 15:25:22,0.0
3689,-442,-1006,679,49,176,2024-01-24 15:25:22,0.0
3392,-441,-896,677,157,163,2024-01-24 15:25:22,0.0
2260,-313,-528,616,167,257,2024-01-24 15:25:22,0.0
3059,-783,-432,541,143,29,2024-01-24 15:25:22,0.0
4237,-449,-636,243,108,-191,2024-01-24 15:25:22,0.0
6050,-1584,-1473,229,-546,-3,2024-01-24 15:25:23,0.0
6163,-197,-2339,744,14,-237,2024-01-24 15:25:23,0.0
2634,280,-969,-274,199,-329,2024-01-24 15:25:23,0.0
4439,-780,-1593,-140,-663,-232,2024-01-24 15:25:23,0.0
5147,-66,-1513,-174,179,-371,2024-01-24 15:25:23,0.0
4003,113,-951,-173,74,-154,2024-01-24 15:25:23,0.0
3804,51,-815,-532,-54,-338,2024-01-24 15:25:23,0.0
2792,-447,-363,-403,14,-240,2024-01-24 15:25:23,0.0
2870,467,-307,-271,-161,-176,2024-01-24 15:25:23,0.0
4329,379,-364,-203,250,157,2024-01-24 15:25:23,0.0
5009,-41,-1021,-97,-41,280,2024-01-24 15:25:23,0.0
6879,-171,-1699,-370,-482,-120,2024-01-24 15:25:23,0.0
4919,-508,-1877,510,296,231,2024-01-24 15:25:23,0.0
3697,-63,-1532,529,-338,23,2024-01-24 15:25:23,0.0
4752,-266,-1658,558,122,246,2024-01-24 15:25:23,0.0
3968,-481,-864,443,237,250,2024-01-24 15:25:23,0.0
3166,-638,-710,468,-97,78,2024-01-24 15:25:23,0.0
2975,-317,-747,654,-14,224,2024-01-24 15:25:24,0.0
2632,-268,-481,415,76,137,2024-01-24 15:25:24,0.0
3016,-536,-408,178,38,-68,2024-01-24 15:25:24,0.0
5037,-795,-359,140,-37,-203,2024-01-24 15:25:24,0.0
5937,-1130,-1699,425,-476,-196,2024-01-24 15:25:24,0.0
6837,-618,-1472,672,-222,-80,2024-01-24 15:25:24,0.0
3191,-139,-2098,-412,608,-400,2024-01-24 15:25:24,0.0
4741,-1207,-841,-49,-636,-256,2024-01-24 15:25:24,0.0
4818,-456,-1492,487,341,-478,2024-01-24 15:25:24,
2792,725,-623,270,-18,-331,2024-01-24 15:25:24,0.0
3354,192,-811,-145,-341,-290,2024-01-24 15:25:24,0.0
2754,-561,-374,118,-2,-389,2024-01-24 15:25:24,0.0
3667,423,-399,286,-8,-175,2024-01-24 15:25:24,0.0
4754,127,-640,293,89,164,2024-01-24 15:25:24,0.0
5353,-148,-1206,-4,-271,61,2024-01-24 15:25:24,0.0
6192,98,-2029,-170,-503,-39,2024-01-24 15:25:24,0.0
4182,-691,-2212,803,168,258,2024-01-24 15:25:24,0.0
4744,240,-1307,621,-88,-30,2024-01-24 15:25:24,0.0
4669,-290,-1286,598,375,401,2024-01-24 15:25:25,0.0
2878,-831,-630,498,19,39,2024-01-24 15:25:25,0.0
2748,-404,-620,778,-68,316,2024-01-24 15:25:25,0.0
2527,-292,-496,526,77,282,2024-01-24 15:25:25,0.0
3225,-615,-385,292,-52,13,2024-01-24 15:25:25,0.0
5407,-755,-448,151,193,-154,2024-01-24 15:25:25,0.0
6221,-1977,-1079,939,-485,32,2024-01-24 15:25:25,0.0
6001,-69,-3024,1117,-429,-81,2024-01-24 15:25:25,0.0
3422,-475,-1465,37,79,-379,2024-01-24 15:25:25,0.0
5065,-949,-1871,468,-501,-222,2024-01-24 15:25:25,0.0
4356,154,-1329,351,-75,-579,2024-01-24 15:25:25,0.0
2847,238,-824,40,-426,-365,2024-01-24 15:25:25,0.0
3116,-413,-830,-39,-259,-480,2024-01-24 15:25:25,0.0
2840,244,-622,28,-262,-465,2024-01-24 15:25:25,0.0
3975,445,-947,57,221,-184,2024-01-24 15:25:25,0.0
4406,97,-923,132,230,23,2024-01-24 15:25:25,0.0
5910,117,-2320,-66,-354,139,2024-01-24 15:25:25,0.0
5710,-1051,-2326,234,389,280,2024-01-24 15:25:26,0.0
3406,-1234,-1238,749,198,-11,2024-01-24 15:25:26,0.0
4757,262,-1605,574,-244,186,2024-01-24 15:25:26,0.0
4049,-429,-1105,264,319,272,2024-01-24 15:25:26,0.0
2789,-745,-785,103,-11,75,2024-01-24 15:25:26,0.0
2847,-145,-829,179,14,249,2024-01-24 15:25:26,0.0
2440,-319,-591,-90,75,239,2024-01-24 15:25:26,0.0
3267,-867,-565,-167,-166,63,2024-01-24 15:25:26,0.0
5347,-541,-739,-152,38,-56,2024-01-24 15:25:26,0.0
5364,-998,-799,121,-274,-156,2024-01-24 15:25:26,0.0
7012,-398,-1893,497,-715,175,2024-01-24 15:25:26,0.0
4779,-660,-2365,-286,488,-410,2024-01-24 15:25:26,0.0
3277,-746,-1235,-335,-257,-234,2024-01-24 15:25:26,0.0
4387,-305,-1647,-175,233,-403,2024-01-24 15:25:26,0.0
3505,371,-1152,-267,65,-249,2024-01-24 15:25:26,0.0
3403,376,-1051,-581,-185,-251,2024-01-24 15:25:26,0.0
3184,-389,-690,-536,-79,-195,2024-01-24 15:25:26,0.0
2943,70,-246,-265,-204,-150,2024-01-24 15:25:26,0.0
4338,165,-907,-199,-122,69,2024-01-24 15:25:27,0.0
4942,72,-1214,-74,60,196,2024-01-24 15:25:27,0.0
6083,-84,-2566,-217,-236,84,2024-01-24 15:25:27,0.0
4435,-997,-2154,496,-178,328,2024-01-24 15:25:27,0.0
4331,-358,-1985,655,-490,-40,2024-01-24 15:25:27,0.0
4667,-205,-1531,641,305,238,2024-01-24 15:25:27,0.0
3162,-739,-959,583,147,92,2024-01-24 15:25:27,0.0
2714,-422,-847,636,-350,71,2024-01-24 15:25:27,0.0
2891,-334,-845,639,-331,63,2024-01-24 15:25:27,0.0
3379,-564,-821,463,-109,-73,2024-01-24 15:25:27,0.0
3827,-957,-1175,464,-110,-165,2024-01-24 15:25:27,0.0
5466,-562,-1115,537,-137,-356,2024-01-24 15:25:27,0.0
5364,-939,-2464,785,-623,90,2024-01-24 15:25:27,0.0
5604,-291,-2824,372,-189,-285,2024-01-24 15:25:27,0.0
3450,-268,-2362,-355,571,-348,2024-01-24 15:25:27,0.0
4346,-451,-1730,-240,-292,-191,2024-01-24 15:25:27,0.0
4404,157,-1879,-560,545,-412,2024-01-24 15:25:27,0.0
2903,78,-1056,-582,209,-112,2024-01-24 15:25:28,0.0
2618,51,-975,-802,-29,-188,2024-01-24 15:25:28,0.0
2686,-196,-505,-655,-190,-138,2024-01-24 15:25:28,0.0
4119,-257,-680,-190,-13,117,2024-01-24 15:25:28,0.0
4625,291,-902,62,355,196,2024-01-24 15:25:28,0.0
5157,-31,-1702,-265,-391,244,2024-01-24 15:25:28,0.0
6068,-541,-2457,-606,-99,-160,2024-01-24 15:25:28,0.0
4314,-403,-2516,780,-40,299,2024-01-24 15:25:28,0.0
4817,-279,-2097,510,61,14,2024-01-24 15:25:28,0.0
4170,-305,-1292,688,327,350,2024-01-24 15:25:28,0.0
3360,-664,-940,727,134,234,2024-01-24 15:25:28,0.0
2645,-663,-573,803,-28,141,2024-01-24 15:25:28,0.0
2387,-315,-823,819,3,206,2024-01-24 15:25:28,0.0
3297,-394,-604,572,117,-78,2024-01-24 15:25:28,0.0
4872,-1123,-906,281,-257,-177,2024-01-24 15:25:28,0.0
5169,-546,-1114,521,306,-331,2024-01-24 15:25:28,0.0
6311,-1325,-1654,969,-907,146,2024-01-24 15:25:28,0.0
4438,-184,-2136,-84,134,-699,2024-01-24 15:25:28,0.0
3880,-828,-1831,-8,-351,-258,2024-01-24 15:25:29,0.0
4614,-302,-1700,131,244,-606,2024-01-24 15:25:29,0.0
3268,350,-1136,-123,212,-441,2024-01-24 15:25:29,0.0
3249,252,-1065,-519,-42,-348,2024-01-24 15:25:29,0.0
3111,-234,-643,-449,119,-319,2024-01-24 15:25:29,0.0
3047,-354,-432,-105,-51,-112,2024-01-24 15:25:29,0.0
4101,383,-671,111,78,-40,2024-01-24 15:25:29,0.0
4996,-132,-751,259,50,200,2024-01-24 15:25:29,0.0
5992,303,-2025,-107,-564,26,2024-01-24 15:25:29,0.0
5168,-907,-2283,340,246,241,2024-01-24 15:25:29,0.0
4321,-124,-1659,719,21,63,2024-01-24 15:25:29,0.0
4671,54,-1472,552,215,229,2024-01-24 15:25:29,0.0
3706,-839,-826,583,190,325,2024-01-24 15:25:29,0.0
2949,-778,-754,738,-59,227,2024-01-24 15:25:29,0.0
2519,-159,-676,712,-40,312,2024-01-24 15:25:29,0.0
2761,-680,-725,438,5,174,2024-01-24 15:25:29,0.0
4468,-685,-349,244,83,-84,2024-01-24 15:25:29,0.0
5151,-808,-154,334,366,-252,2024-01-24 15:25:29,0.0
6050,-1453,-1365,691,-1017,-92,2024-01-24 15:25:30,0.0
6026,-1043,-2147,1000,-185,-147,2024-01-24 15:25:30,0.0
2824,8,-1454,41,-156,-621,2024-01-24 15:25:30,
4539,-1146,-1739,46,-464,-411,2024-01-24 15:25:30,0.0
4215,-218,-1115,221,-357,-546,2024-01-24 15:25:30,0.0
3282,950,-1205,-205,-399,-438,2024-01-24 15:25:30,0.0
2953,-313,-991,-561,-403,-468,2024-01-24 15:25:30,0.0
2659,-554,-203,-85,-209,-429,2024-01-24 15:25:30,0.0
4481,358,-1020,6,-327,-280,2024-01-24 15:25:30,0.0
4809,444,-908,140,160,-38,2024-01-24 15:25:30,0.0
5225,-115,-2592,-445,-825,0,2024-01-24 15:25:30,0.0
5291,-618,-3087,260,316,324,2024-01-24 15:25:30,0.0
3159,-431,-1531,484,-15,16,2024-01-24 15:25:30,0.0
5572,-93,-2137,516,349,313,2024-01-24 15:25:30,0.0
3961,-855,-1249,391,785,95,2024-01-24 15:25:30,0.0
2603,-677,-546,707,-46,65,2024-01-24 15:25:30,0.0
2899,-325,-1140,830,184,86,2024-01-24 15:25:30,0.0
2246,-253,-102,745,757,-28,2024-01-24 15:25:31,0.0
2696,-522,381,261,290,-166,2024-01-24 15:25:31,0.0
5126,423,-966,-397,-407,-621,2024-01-24 15:25:31,0.0
6757,-1420,-203,121,678,68,2024-01-24 15:25:31,0.0
5067,-1501,-1475,340,105,-31,2024-01-24 15:25:31,0.0
3812,-750,-1740,428,390,-378,2024-01-24 15:25:31,0.0
4522,-912,-929,1067,370,-40,2024-01-24 15:25:31,0.0
4511,-1,-1457,1013,84,-585,2024-01-24 15:25:31,0.0
2837,16,-557,1039,479,-251,2024-01-24 15:25:31,0.0
3551,-348,-575,1202,-161,-390,2024-01-24 15:25:31,0.0
3399,408,-327,1043,131,-172,2024-01-24 15:25:31,0.0
4094,-91,-215,881,-148,40,2024-01-24 15:25:31,0.0
4870,-613,-861,541,204,288,2024-01-24 15:25:31,0.0
4995,-704,768,453,932,-266,2024-01-24 15:25:31,0.0
5888,-837,-2454,617,-404,-556,2024-01-24 15:25:31,0.0
4028,-182,-670,1090,134,-359,2024-01-24 15:25:31,0.0
5595,-53,-1410,694,-491,528,2024-01-24 15:25:31,0.0
2670,-1427,-129,936,524,92,2024-01-24 15:25:31,0.0
2780,122,-204,817,-415,323,2024-01-24 15:25:32,0.0
3754,-75,-47,50,-40,35,2024-01-24 15:25:32,0.0
4289,-1456,290,49,-103,-111,2024-01-24 15:25:32,0.0
5366,-1417,271,549,176,-511,2024-01-24 15:25:32,0.0
5577,352,-667,366,-364,132,2024-01-24 15:25:32,0.0
4564,-1756,-1668,476,151,169,2024-01-24 15:25:32,0.0
4936,594,-1750,911,-23,13,2024-01-24 15:25:32,0.0
4621,-572,-647,432,85,-405,2024-01-24 15:25:32,0.0
3032,-490,-427,665,159,-269,2024-01-24 15:25:32,0.0
3254,172,-343,793,-19,-343,2024-01-24 15:25:32,0.0
2868,361,24,588,-136,119,2024-01-24 15:25:32,0.0
4037,169,-144,522,-376,229,2024-01-24 15:25:32,0.0
5282,169,-671,-5,0,259,2024-01-24 15:25:32,0.0
5286,-232,1065,-128,694,-327,2024-01-24 15:25:32,0.0
5932,-473,-2114,-453,-955,-483,2024-01-24 15:25:32,0.0
3948,-942,-690,673,1159,-215,2024-01-24 15:25:32,0.0
4864,-181,-558,667,-527,400,2024-01-24 15:25:32,0.0
3912,-1139,-914,778,677,175,2024-01-24 15:25:33,0.0
2725,183,43,497,-343,218,2024-01-24 15:25:33,0.0
3137,-517,-5,165,21,191,2024-01-24 15:25:33,0.0
3413,-442,320,-357,-482,-275,2024-01-24 15:25:33,0.0
5284,-1042,-549,-96,61,-342,2024-01-24 15:25:33,0.0
5429,-304,1696,93,506,241,2024-01-24 15:25:33,0.0
5206,-1822,-2911,263,-1220,574,2024-01-24 15:25:33,0.0
4360,230,-1916,756,482,123,2024-01-24 15:25:33,0.0
4977,-446,-261,358,-74,-259,2024-01-24 15:25:33,0.0
3635,-122,-785,422,370,-303,2024-01-24 15:25:33,0.0
2525,-386,211,576,-242,-272,2024-01-24 15:25:33,0.0
3765,78,-405,690,-382,-34,2024-01-24 15:25:33,0.0
3641,-194,356,718,-79,132,2024-01-24 15:25:33,0.0
4698,-150,-106,679,-176,204,2024-01-24 15:25:33,0.0
5745,797,431,314,317,-195,2024-01-24 15:25:33,0.0
5528,-1156,-1075,-176,-638,-312,2024-01-24 15:25:33,0.0
4756,-660,-1552,230,542,-660,2024-01-24 15:25:33,0.0
4198,-872,3,698,-276,-37,2024-01-24 15:25:33,0.0
5100,-551,-1466,698,64,155,2024-01-24 15:25:34,0.0
2449,-439,122,774,-75,135,2024-01-24 15:25:34,0.0
3454,-120,-601,431,-614,153,2024-01-24 15:25:34,0.0
3388,-467,16,32,-126,17,2024-01-24 15:25:34,0.0
5137,-271,-214,-69,-137,-272,2024-01-24 15:25:34,0.0
5388,-1687,564,221,450,-143,2024-01-24 15:25:34,0.0
4676,-195,-2201,418,-832,287,2024-01-24 15:25:34,0.0
4904,-1225,-915,629,506,216,2024-01-24 15:25:34,0.0
5790,296,-1303,1063,4,200,2024-01-24 15:25:34,0.0
4093,-106,-1147,457,168,-465,2024-01-24 15:25:34,0.0
2373,-517,28,664,129,-108,2024-01-24 15:25:34,0.0
3764,-99,-706,855,-240,-198,2024-01-24 15:25:34,0.0
3476,143,135,906,263,108,2024-01-24 15:25:34,0.0
4812,210,-420,715,-70,113,2024-01-24 15:25:34,0.0
4958,1330,-521,-274,-63,-220,2024-01-24 15:25:34,0.0
5448,-2587,-1612,-15,-619,65,2024-01-24 15:25:34,0.0
4404,-733,-1195,1093,729,-663,2024-01-24 15:25:34,0.0
3397,-339,-298,1207,-567,96,2024-01-24 15:25:35,0.0
6659,-898,-2137,1000,-599,236,2024-01-24 15:25:35,0.0
3585,-1035,-548,1106,357,1,2024-01-24 15:25:35,0.0
3761,-14,-807,737,-474,81,2024-01-24 15:25:35,0.0
3230,-954,-252,525,13,6,2024-01-24 15:25:35,0.0
3157,-765,-105,763,-308,-203,2024-01-24 15:25:35,0.0
5378,-492,-536,506,-347,-305,2024-01-24 15:25:35,0.0
7095,-1101,-1959,520,-610,-4,2024-01-24 15:25:35,0.0
3587,-548,-1537,453,195,-319,2024-01-24 15:25:35,0.0
3802,-682,-1112,352,-635,-285,2024-01-24 15:25:35,0.0
5631,-201,-2155,501,-404,-341,2024-01-24 15:25:35,0.0
4261,461,-1190,387,30,-318,2024-01-24 15:25:35,0.0
3771,-51,-899,121,-333,-399,2024-01-24 15:25:35,0.0
3341,-33,-804,-64,-210,-529,2024-01-24 15:25:35,0.0
2899,-196,-738,127,-358,-413,2024-01-24 15:25:35,0.0
3547,-201,-439,481,133,-132,2024-01-24 15:25:35,
4540,-288,-1079,656,-172,168,2024-01-24 15:25:35,0.0
6714,273,-2382,28,-740,-89,2024-01-24 15:25:35,0.0
4357,369,-2278,373,25,329,2024-01-24 15:25:36,0.0
3763,-721,-2092,675,-407,131,2024-01-24 15:25:36,0.0
4690,-403,-1768,816,341,163,2024-01-24 15:25:36,0.0
3813,-41,-1284,715,209,193,2024-01-24 15:25:36,0.0
3269,-949,-758,787,-23,132,2024-01-24 15:25:36,0.0
2865,-133,-963,844,97,107,2024-01-24 15:25:36,0.0
2700,-608,-375,738,349,93,2024-01-24 15:25:36,0.0
3904,-859,-613,480,95,-290,2024-01-24 15:25:36,0.0
4790,-421,-1176,428,-108,-238,2024-01-24 15:25:36,0.0
6816,-1339,-1902,631,-917,155,2024-01-24 15:25:36,0.0
5300,-28,-2755,38,238,-251,2024-01-24 15:25:36,0.0
2535,-907,-1089,-438,142,-199,2024-01-24 15:25:36,0.0
5400,-756,-2064,124,-303,-327,2024-01-24 15:25:36,0.0
3936,323,-1298,-4,620,-484,2024-01-24 15:25:36,0.0
3017,385,-909,-303,-189,-243,2024-01-24 15:25:36,0.0
3405,-416,-993,-382,62,-353,2024-01-24 15:25:36,0.0
2916,-163,-545,-130,159,-331,2024-01-24 15:25:36,0.0
3521,-72,-340,152,340,-58,2024-01-24 15:25:37,0.0
4667,-304,-556,403,90,202,2024-01-24 15:25:37,0.0
6308,980,-2042,94,-771,282,2024-01-24 15:25:37,0.0
4941,-1246,-2523,-14,-61,100,2024-01-24 15:25:37,0.0
3882,-315,-1248,918,95,93,2024-01-24 15:25:37,0.0
4721,-27,-1673,345,89,276,2024-01-24 15:25:37,0.0
3872,-683,-953,164,384,289,2024-01-24 15:25:37,0.0
3179,-1013,-672,328,-77,197,2024-01-24 15:25:37,0.0
2799,-369,-799,509,10,206,2024-01-24 15:25:37,0.0
2446,-155,-648,256,-111,174,2024-01-24 15:25:37,0.0
3760,-672,-779,-57,-182,43,2024-01-24 15:25:37,0.0
5298,-1005,-641,-82,223,-124,2024-01-24 15:25:37,0.0
6046,-1425,-1364,486,-611,-24,2024-01-24 15:25:37,0.0
5791,-482,-2715,464,-153,-255,2024-01-24 15:25:37,0.0
2879,-649,-1402,-178,310,-351,2024-01-24 15:25:37,0.0
4636,-988,-1884,128,-579,-241,2024-01-24 15:25:37,0.0
4690,461,-1446,-33,110,-518,2024-01-24 15:25:37,0.0
3127,72,-831,-105,-127,-157,2024-01-24 15:25:37,0.0
3653,-617,-1037,-294,-79,-464,2024-01-24 15:25:38,0.0
2634,76,-556,-16,55,-363,2024-01-24 15:25:38,0.0
3384,-23,-750,-35,-136,-151,2024-01-24 15:25:38,0.0
4353,29,-729,225,337,-75,2024-01-24 15:25:38,0.0
5197,155,-2014,7,-564,312,2024-01-24 15:25:38,0.0
6761,-961,-2663,-224,27,89,2024-01-24 15:25:38,0.0
3319,-680,-1506,845,432,67,2024-01-24 15:25:38,0.0
4885,-186,-1916,527,-389,10,2024-01-24 15:25:38,0.0
4233,-468,-970,641,555,150,2024-01-24 15:25:38,0.0
3119,-499,-924,511,-102,96,2024-01-24 15:25:38,0.0
3226,-638,-566,614,-50,193,2024-01-24 15:25:38,0.0
2843,-82,-740,558,195,184,2024-01-24 15:25:38,0.0
2921,-1078,-404,367,110,95,2024-01-24 15:25:38,0.0
4544,-1131,-790,450,-177,-188,2024-01-24 15:25:38,0.0
4966,-465,-806,357,108,-343,2024-01-24 15:25:38,0.0
5381,-1112,-984,647,-524,15,2024-01-24 15:25:38,0.0
5604,-454,-2208,602,-235,-237,2024-01-24 15:25:39,0.0
4011,-317,-2025,-207,-4,-365,2024-01-24 15:25:39,0.0
4574,-568,-1728,1,-100,-144,2024-01-24 15:25:39,0.0
4980,-407,-1615,-156,90,-459,2024-01-24 15:25:39,0.0
3458,34,-990,42,172,-249,2024-01-24 15:25:39,0.0
3454,273,-732,-289,-28,-299,2024-01-24 15:25:39,0.0
3347,-483,-757,-251,59,-289,2024-01-24 15:25:39,0.0
2946,0,-532,87,-4,-236,2024-01-24 15:25:39,0.0
3725,559,-683,15,79,-43,2024-01-24 15:25:39,0.0
4487,-353,-375,168,-16,206,2024-01-24 15:25:39,0.0
5821,61,-1824,52,-415,81,2024-01-24 15:25:39,0.0
5607,-81,-2177,-240,-185,119,2024-01-24 15:25:39,0.0
4664,-1174,-2064,897,99,268,2024-01-24 15:25:39,0.0
4235,-242,-1492,844,-154,-190,2024-01-24 15:25:39,0.0
4275,-375,-1222,1132,-97,295,2024-01-24 15:25:39,0.0
3612,-1375,-746,1212,-37,-64,2024-01-24 15:25:39,0.0
3041,-630,-895,1583,-359,-131,2024-01-24 15:25:39,0.0
2927,-336,-1154,1567,10,-33,2024-01-24 15:25:39,0.0
2623,-577,-554,1338,-39,-267,2024-01-24 15:25:39,0.0
3402,-644,-1036,1159,-500,-452,2024-01-24 15:25:40,0.0
4662,-268,-988,995,-462,-434,2024-01-24 15:25:40,0.0
5437,-456,-1459,920,-800,-144,2024-01-24 15:25:40,0.0
6371,-1103,-2731,744,-252,86,2024-01-24 15:25:40,0.0
5134,-994,-2453,104,66,-207,2024-01-24 15:25:40,0.0
3275,-1151,-1573,-168,416,-143,2024-01-24 15:25:40,0.0
4182,-178,-1628,-430,-81,-568,2024-01-24 15:25:40,0.0
3849,-46,-1586,-305,-21,-327,2024-01-24 15:25:40,0.0
3535,-434,-1404,-426,-56,-406,2024-01-24 15:25:40,0.0
3237,-148,-1231,-228,152,-366,2024-01-24 15:25:40,0.0
2781,300,-917,-205,190,-346,2024-01-24 15:25:40,0.0
3053,513,-765,-290,-70,-162,2024-01-24 15:25:40,0.0
4101,352,-864,-128,73,109,2024-01-24 15:25:40,0.0
4941,206,-1234,20,-75,304,2024-01-24 15:25:40,0.0
6350,-325,-1861,-33,237,8,2024-01-24 15:25:40,0.0
5721,-443,-1667,159,640,107,2024-01-24 15:25:40,0.0
3615,-724,-996,383,28,-78,2024-01-24 15:25:40,0.0
5506,-209,-1641,303,-351,88,2024-01-24 15:25:41,0.0
4352,-964,-816,483,526,97,2024-01-24 15:25:41,0.0
2958,-638,-553,729,-98,13,2024-01-24 15:25:41,0.0
2556,-255,-641,728,-129,101,2024-01-24 15:25:41,0.0
2651,-489,-654,808,10,163,2024-01-24 15:25:41,0.0
3593,-798,-672,629,39,-138,2024-01-24 15:25:41,0.0
5073,274,-568,545,186,-174,2024-01-24 15:25:41,0.0
4976,347,-578,308,41,47,2024-01-24 15:25:41,0.0
6483,-1083,-543,504,-312,353,2024-01-24 15:25:41,0.0
5433,-787,-2085,277,190,-327,2024-01-24 15:25:41,0.0
3841,-1028,-1060,248,140,-204,2024-01-24 15:25:41,
4703,-195,-1560,-255,227,-299,2024-01-24 15:25:41,0.0
3883,58,-1124,-663,69,-490,2024-01-24 15:25:41,0.0
3615,-30,-812,-579,-196,-112,2024-01-24 15:25:41,0.0
3450,206,-771,-782,-161,-245,2024-01-24 15:25:41,0.0
2831,-174,-715,-625,-115,-133,2024-01-24 15:25:41,0.0
3163,-184,-440,-356,57,-56,2024-01-24 15:25:41,0.0
4197,849,-699,-291,304,42,2024-01-24 15:25:41,0.0
4643,730,-229,-546,540,175,2024-01-24 15:25:42,0.0
5055,-276,-1067,-447,-275,353,2024-01-24 15:25:42,0.0
6630,-30,-1710,-539,255,-160,2024-01-24 15:25:42,0.0
3996,-1078,-727,83,500,412,2024-01-24 15:25:42,0.0
4655,-232,-849,-331,-436,210,2024-01-24 15:25:42,0.0
4457,-332,-619,-355,34,595,2024-01-24 15:25:42,0.0
3613,-817,-471,-434,-273,374,2024-01-24 15:25:42,0.0
3834,-498,-469,-264,-234,294,2024-01-24 15:25:42,0.0
2974,-639,-468,5,-151,362,2024-01-24 15:25:42,0.0
3115,-251,-556,-154,-188,233,2024-01-24 15:25:42,0.0
3767,-996,-551,-26,51,154,2024-01-24 15:25:42,0.0
4309,-779,-258,50,137,-111,2024-01-24 15:25:42,0.0
4538,-356,2,105,-82,-114,2024-01-24 15:25:42,0.0
5465,-999,-610,258,-699,82,2024-01-24 15:25:42,0.0
6194,-1201,-1434,457,-558,168,2024-01-24 15:25:42,0.0
5689,-832,-2209,22,-256,-392,2024-01-24 15:25:42,0.0
3316,-330,-1679,-129,162,-235,2024-01-24 15:25:42,0.0
4326,-652,-1336,-106,-79,-427,2024-01-24 15:25:43,0.0
3929,170,-1088,-115,212,-430,2024-01-24 15:25:43,0.0
3151,2,-767,-296,126,-297,2024-01-24 15:25:43,0.0
3347,65,-663,-338,-80,-376,2024-01-24 15:25:43,0.0
3438,-149,-706,-218,-48,-343,2024-01-24 15:25:43,0.0
3594,189,-296,82,11,-220,2024-01-24 15:25:43,0.0
4440,664,-294,21,84,-34,2024-01-24 15:25:43,0.0
4950,30,-1113,18,-33,273,2024-01-24 15:25:43,0.0
6045,209,-1872,-371,-171,141,2024-01-24 15:25:43,0.0
4753,-804,-2099,290,202,327,2024-01-24 15:25:43,0.0
4455,173,-1371,399,-244,220,2024-01-24 15:25:43,0.0
4354,-374,-1279,280,90,436,2024-01-24 15:25:43,0.0
3585,-779,-648,342,-60,359,2024-01-24 15:25:43,0.0
3412,-1039,-748,601,-367,190,2024-01-24 15:25:43,0.0
3121,-262,-936,684,-160,152,2024-01-24 15:25:43,0.0
2852,8,-503,244,59,66,2024-01-24 15:25:43,0.0
3409,-1260,-63,229,-135,-51,2024-01-24 15:25:43,0.0
5585,-583,-931,416,-428,-110,2024-01-24 15:25:43,0.0
6415,-1208,-2129,237,-652,-159,2024-01-24 15:25:44,0.0
4065,-57,-2260,80,-20,-198,2024-01-24 15:25:44,0.0
3449,-796,-1505,-481,-423,-212,2024-01-24 15:25:44,0.0
5258,-606,-1955,-201,12,-341,2024-01-24 15:25:44,0.0
3704,-381,-1144,-19,252,-288,2024-01-24 15:25:44,0.0
3351,138,-1108,-86,-41,-359,2024-01-24 15:25:44,0.0
3156,-97,-810,-136,104,-311,2024-01-24 15:25:44,0.0
2879,-101,-621,96,-51,-371,2024-01-24 15:25:44,0.0
3637,345,-1138,320,-4,-127,2024-01-24 15:25:44,0.0
4594,-176,-737,380,-76,99,2024-01-24 15:25:44,0.0
5006,-22,-846,371,-3,-1,2024-01-24 15:25:44,0.0
5273,299,-1623,-185,-602,62,2024-01-24 15:25:44,0.0
5476,-422,-2830,19,99,122,2024-01-24 15:25:44,0.0
3719,-4,-1663,400,318,130,2024-01-24 15:25:44,0.0
4633,-454,-1915,283,15,259,2024-01-24 15:25:44,0.0
4009,-877,-1098,526,608,264,2024-01-24 15:25:44,0.0
3260,-525,-983,590,47,116,2024-01-24 15:25:44,0.0
3195,-668,-789,670,-18,211,2024-01-24 15:25:45,0.0
2811,-549,-634,674,30,186,2024-01-24 15:25:45,0.0
3171,-679,-600,404,-205,2,2024-01-24 15:25:45,0.0
4450,-623,-560,320,-143,-150,2024-01-24 15:25:45,0.0
5636,-507,-1031,99,-315,-220,2024-01-24 15:25:45,0.0
6705,-1316,-1596,645,-437,31,2024-01-24 15:25:45,0.0
3760,-24,-2106,-178,111,-368,2024-01-24 15:25:45,0.0
4593,-1254,-1619,-295,-626,-222,2024-01-24 15:25:45,0.0
4605,-427,-1632,64,16,-483,2024-01-24 15:25:45,0.0
3106,401,-1214,48,257,-338,2024-01-24 15:25:45,0.0
2881,163,-961,-311,-214,-326,2024-01-24 15:25:45,0.0
3104,-517,-751,-75,-243,-306,2024-01-24 15:25:45,0.0
3423,-35,-1062,359,82,-238,2024-01-24 15:25:45,0.0
3942,197,-1101,297,-63,-126,2024-01-24 15:25:45,0.0
5422,-107,-1003,173,-28,34,2024-01-24 15:25:45,0.0
5068,53,-1948,-130,-685,229,2024-01-24 15:25:45,0.0
5393,-977,-3230,189,-327,181,2024-01-24 15:25:45,0.0
3949,-24,-1897,651,217,-3,2024-01-24 15:25:45,0.0
4644,-446,-1918,550,250,228,2024-01-24 15:25:46,0.0
3907,-393,-1138,569,453,171,2024-01-24 15:25:46,0.0
3023,-912,-874,574,52,67,2024-01-24 15:25:46,0.0
2679,-673,-964,910,71,98,2024-01-24 15:25:46,0.0
2592,-445,-870,711,73,25,2024-01-24 15:25:46,0.0
3517,-785,-694,393,157,-204,2024-01-24 15:25:46,0.0
5094,-593,-445,277,214,-162,2024-01-24 15:25:46,0.0
6234,-1058,-1487,215,-149,-111,2024-01-24 15:25:46,0.0
5678,-574,-2330,254,-46,-141,2024-01-24 15:25:46,0.0
2988,-64,-1293,-416,387,-304,2024-01-24 15:25:46,0.0
4741,-1118,-1383,-214,-400,-327,2024-01-24 15:25:46,0.0
4149,270,-1255,-61,396,-312,2024-01-24 15:25:46,0.0
2906,472,-719,-441,95,-335,2024-01-24 15:25:46,0.0
3130,-539,-664,-577,-343,-334,2024-01-24 15:25:46,0.0
3468,-129,-593,-29,-104,-304,2024-01-24 15:25:46,0.0
3681,294,-635,149,-15,-111,2024-01-24 15:25:46,0.0
4753,79,-513,55,-155,-45,2024-01-24 15:25:46,0.0
4914,632,-1154,-158,-140,188,2024-01-24 15:25:47,0.0
6544,-376,-2334,-712,-600,123,2024-01-24 15:25:47,0.0
4437,-608,-2316,546,736,247,2024-01-24 15:25:47,0.0
4211,14,-1418,226,-407,187,2024-01-24 15:25:47,0.0
4397,-385,-1389,390,267,380,2024-01-24 15:25:47,0.0
3561,-760,-724,365,-18,300,2024-01-24 15:25:47,
3142,-692,-623,596,-257,169,2024-01-24 15:25:47,0.0
2835,-457,-651,733,-246,188,2024-01-24 15:25:47,0.0
2867,-233,-877,424,-235,16,2024-01-24 15:25:47,0.0
4098,-944,-603,100,-220,-81,2024-01-24 15:25:47,0.0
5515,-598,-886,216,36,-196,2024-01-24 15:25:47,0.0
4983,-1472,-2043,334,-936,54,2024-01-24 15:25:47,0.0
6384,-334,-2953,471,-469,-168,2024-01-24 15:25:47,0.0
2472,-283,-1398,-440,-91,-255,2024-01-24 15:25:47,0.0
5331,-1007,-2483,12,-738,-322,2024-01-24 15:25:47,0.0
3977,162,-1336,21,-1,-365,2024-01-24 15:25:47,0.0
3184,-131,-1187,-135,25,-381,2024-01-24 15:25:47,0.0
2632,-397,-875,-110,-8,-367,2024-01-24 15:25:47,0.0
2473,-482,-434,357,-24,-343,2024-01-24 15:25:48,0.0
4355,479,-2076,316,960,-376,2024-01-24 15:25:48,0.0
5651,199,-813,1,975,-184,2024-01-24 15:25:48,0.0
4183,-340,-824,-37,287,-122,2024-01-24 15:25:48,0.0
6878,184,-2091,9,-125,-56,2024-01-24 15:25:48,0.0
4621,-1537,-1703,555,400,-92,2024-01-24 15:25:48,0.0
3837,-527,-1105,794,-8,-53,2024-01-24 15:25:48,0.0
4719,113,-740,846,567,187,2024-01-24 15:25:48,0.0
3076,-343,-691,563,58,74,2024-01-24 15:25:48,0.0
3251,-989,-551,832,-18,132,2024-01-24 15:25:48,0.0
2658,108,-697,685,-17,22,2024-01-24 15:25:48,0.0
2015,-404,207,462,107,-14,2024-01-24 15:25:48,0.0
3929,-901,-21,306,-126,-124,2024-01-24 15:25:48,0.0
5363,187,-487,14,-177,-514,2024-01-24 15:25:48,0.0
6171,-1644,339,344,208,6,2024-01-24 15:25:48,0.0
6030,-1655,-2557,933,-376,206,2024-01-24 15:25:48,0.0
2498,185,-1284,920,799,-429,2024-01-24 15:25:48,0.0
5035,-521,-726,900,-143,-103,2024-01-24 15:25:49,0.0
4217,-355,-1203,1075,624,-511,2024-01-24 15:25:49,0.0
2672,-82,38,1028,-15,-394,2024-01-24 15:25:49,0.0
4185,496,-704,996,84,-204,2024-01-24 15:25:49,0.0
3131,-140,8,760,85,-49,2024-01-24 15:25:49,0.0
4724,46,-220,685,104,131,2024-01-24 15:25:49,0.0
5199,-122,137,366,435,-18,2024-01-24 15:25:49,0.0
4899,-427,-36,441,21,-89,2024-01-24 15:25:49,0.0
6054,-544,-2088,520,-202,-538,2024-01-24 15:25:49,0.0
3666,-289,-121,962,657,-8,2024-01-24 15:25:49,0.0
4785,-680,-1318,634,-466,446,2024-01-24 15:25:49,0.0
3013,-1014,-154,808,366,102,2024-01-24 15:25:49,0.0
3434,158,-347,559,-290,296,2024-01-24 15:25:49,0.0
3187,-845,157,261,19,52,2024-01-24 15:25:49,0.0
4165,-962,307,274,-429,-118,2024-01-24 15:25:49,0.0
5547,-286,8,275,-25,-250,2024-01-24 15:25:49,0.0
5201,-472,1088,200,277,222,2024-01-24 15:25:49,0.0
5151,-1561,-1672,233,-775,122,2024-01-24 15:25:49,0.0
3938,-314,-1261,842,191,322,2024-01-24 15:25:50,0.0
4557,-406,-240,608,-94,-306,2024-01-24 15:25:50,0.0
3805,208,-1225,532,-61,-531,2024-01-24 15:25:50,0.0
2820,-29,-8,676,-88,-100,2024-01-24 15:25:50,0.0
4190,-185,-608,826,-277,-162,2024-01-24 15:25:50,0.0
3498,222,503,820,-8,222,2024-01-24 15:25:50,0.0
4836,162,-408,339,-315,231,2024-01-24 15:25:50,0.0
5721,497,532,-31,577,-254,2024-01-24 15:25:50,0.0
5192,-801,-843,81,-506,-141,2024-01-24 15:25:50,0.0
5434,-234,-2615,-24,286,-660,2024-01-24 15:25:50,0.0
3409,-1513,220,578,136,-35,2024-01-24 15:25:50,0.0
5258,-259,-1424,624,-62,239,2024-01-24 15:25:50,0.0
2740,-699,-233,573,239,109,2024-01-24 15:25:50,0.0
3620,-84,-363,275,-215,243,2024-01-24 15:25:50,0.0
3285,-677,192,-1,32,-42,2024-01-24 15:25:50,0.0
4163,-801,71,-107,-399,-117,2024-01-24 15:25:50,0.0
5392,-809,-294,209,-78,-266,2024-01-24 15:25:50,0.0
5655,-484,444,109,76,252,2024-01-24 15:25:51,0.0
4754,-869,-1905,377,-301,259,2024-01-24 15:25:51,0.0
3715,-109,-863,255,75,34,2024-01-24 15:25:51,0.0
5730,-689,-963,702,-145,-216,2024-01-24 15:25:51,0.0
2639,274,-343,524,268,-273,2024-01-24 15:25:51,0.0
3389,-259,-236,549,-360,-143,2024-01-24 15:25:51,0.0
4117,472,-220,590,86,15,2024-01-24 15:25:51,0.0
3605,-175,91,427,-80,156,2024-01-24 15:25:51,0.0
4484,-270,-493,469,2,212,2024-01-24 15:25:51,0.0
5822,944,814,-37,694,-333,2024-01-24 15:25:51,0.0
5761,-522,-1099,-142,-64,-295,2024-01-24 15:25:51,0.0
4004,-1412,-996,133,467,-320,2024-01-24 15:25:51,0.0
5110,95,-733,-43,-504,12,2024-01-24 15:25:51,0.0
4262,-862,-743,53,348,404,2024-01-24 15:25:51,0.0
2442,-867,193,233,-235,91,2024-01-24 15:25:51,0.0
3707,-83,-251,87,-221,227,2024-01-24 15:25:51,0.0
3579,-1065,691,35,-44,-43,2024-01-24 15:25:51,0.0
5034,-304,123,-96,-613,-341,2024-01-24 15:25:51,0.0
5668,-1556,-85,639,74,-134,2024-01-24 15:25:52,0.0
4914,477,-241,330,-70,36,2024-01-24 15:25:52,0.0
4419,-1310,-1887,444,-147,496,2024-01-24 15:25:52,0.0
4777,347,-1138,901,192,88,2024-01-24 15:25:52,0.0
4845,-1162,-364,470,50,-397,2024-01-24 15:25:52,0.0
2745,157,-599,840,-14,-307,2024-01-24 15:25:52,0.0
3617,-165,-297,867,-187,-107,2024-01-24 15:25:52,0.0
3767,225,-53,824,28,-35,2024-01-24 15:25:52,0.0
4299,240,-180,640,-180,220,2024-01-24 15:25:52,0.0
4688,78,-759,40,14,52,2024-01-24 15:25:52,0.0
5075,-816,751,176,494,-200,2024-01-24 15:25:52,0.0
6305,-435,-2457,389,-606,-291,2024-01-24 15:25:52,0.0
2674,-798,-153,405,583,-501,2024-01-24 15:25:52,0.0
5249,-389,-837,519,-831,341,2024-01-24 15:25:52,0.0
4033,-1003,-977,802,495,-20,2024-01-24 15:25:52,0.0
2770,-83,94,551,-508,149,2024-01-24 15:25:52,0.0
3562,-595,-104,273,-247,6,2024-01-24 15:25:52,0.0
4350,-356,303,140,-508,-367,2024-01-24 15:25:53,
5093,-1162,-857,543,-39,-488,2024-01-24 15:25:53,0.0
5443,115,-771,512,-158,-21,2024-01-24 15:25:53,0.0
4407,-1023,-2308,249,-214,161,2024-01-24 15:25:53,0.0
4119,-866,-1212,1201,-200,-22,2024-01-24 15:25:53,0.0
5889,944,-1864,453,-114,-705,2024-01-24 15:25:53,0.0
2924,-507,-633,704,107,-8,2024-01-24 15:25:53,0.0
3908,-622,-906,848,-469,-680,2024-01-24 15:25:53,0.0
3954,533,-1133,860,-148,-359,2024-01-24 15:25:53,0.0
3934,53,-416,705,62,-294,2024-01-24 15:25:53,0.0
4658,658,147,638,-136,217,2024-01-24 15:25:53,0.0
5239,461,-2619,-60,-1162,266,2024-01-24 15:25:53,0.0
4911,-2581,-3010,925,-338,185,2024-01-24 15:25:53,0.0
3471,270,-2180,1591,-220,-194,2024-01-24 15:25:53,0.0
4644,-584,-2211,1444,-176,6,2024-01-24 15:25:53,0.0
4088,133,-1164,1033,337,-82,2024-01-24 15:25:53,0.0
3587,-895,-1198,815,-189,109,2024-01-24 15:25:53,0.0
3669,-416,-1303,893,-104,-35,2024-01-24 15:25:53,0.0
2888,-383,-853,700,-20,59,2024-01-24 15:25:54,0.0
3023,-967,-497,509,-173,-66,2024-01-24 15:25:54,0.0
4009,-591,-813,272,-182,-342,2024-01-24 15:25:54,0.0
5086,-375,-1797,56,-599,-112,2024-01-24 15:25:54,0.0
6995,-674,-2617,193,-572,-50,2024-01-24 15:25:54,0.0
3801,-285,-1750,-525,280,-335,2024-01-24 15:25:54,0.0
4266,-741,-1903,-391,-339,-227,2024-01-24 15:25:54,0.0
4522,270,-1727,-145,440,-368,2024-01-24 15:25:54,0.0
3360,186,-1214,-181,157,-149,2024-01-24 15:25:54,0.0
3427,273,-1160,-341,-2,-268,2024-01-24 15:25:54,0.0
3161,-592,-953,-152,45,-326,2024-01-24 15:25:54,0.0
2944,49,-846,236,-108,-363,2024-01-24 15:25:54,0.0
3685,627,-1018,149,19,-164,2024-01-24 15:25:54,0.0
4967,443,-926,25,-23,62,2024-01-24 15:25:54,0.0
5631,-339,-2537,148,-356,194,2024-01-24 15:25:54,0.0
5690,-248,-2542,128,598,13,2024-01-24 15:25:54,0.0
3002,-231,-1435,755,304,344,2024-01-24 15:25:54,0.0
4863,-354,-1769,375,30,388,2024-01-24 15:25:55,0.0
4164,-237,-1249,347,632,329,2024-01-24 15:25:55,0.0
3053,-1203,-698,639,-115,175,2024-01-24 15:25:55,0.0
2676,-27,-855,859,113,209,2024-01-24 15:25:55,0.0
2379,-22,-628,500,-3,253,2024-01-24 15:25:55,0.0
3752,-1156,-338,117,-57,-133,2024-01-24 15:25:55,0.0
5767,-300,-873,260,-40,-108,2024-01-24 15:25:55,0.0
5305,-1515,-1726,174,-578,-3,2024-01-24 15:25:55,0.0
6392,-211,-2717,363,-683,-164,2024-01-24 15:25:55,0.0
3199,-444,-1466,-462,879,-494,2024-01-24 15:25:55,0.0
4400,-900,-1640,-102,-743,-328,2024-01-24 15:25:55,0.0
4209,380,-1555,-175,420,-429,2024-01-24 15:25:55,0.0
3113,199,-927,-373,-94,-175,2024-01-24 15:25:55,0.0
3146,48,-1139,-606,-265,-111,2024-01-24 15:25:55,0.0
3264,-130,-647,-387,-173,-67,2024-01-24 15:25:55,0.0
3516,104,-441,-73,-150,-48,2024-01-24 15:25:55,0.0
4413,327,-654,-69,-85,-7,2024-01-24 15:25:55,0.0
5034,-267,-682,155,-180,174,2024-01-24 15:25:55,0.0
5648,294,-2468,-121,-514,64,2024-01-24 15:25:56,0.0
5228,-638,-2486,54,351,65,2024-01-24 15:25:56,0.0
3523,-216,-1488,674,384,162,2024-01-24 15:25:56,0.0
4454,186,-1810,327,-20,222,2024-01-24 15:25:56,0.0
3691,-660,-950,249,481,429,2024-01-24 15:25:56,0.0
3424,-999,-1034,418,-74,240,2024-01-24 15:25:56,0.0
3720,-237,-1021,486,-17,196,2024-01-24 15:25:56,0.0
2894,-358,-723,234,16,171,2024-01-24 15:25:56,0.0
3215,-906,-440,207,-148,54,2024-01-24 15:25:56,0.0
4342,-685,-516,265,-99,-123,2024-01-24 15:25:56,0.0
5343,-433,-731,192,-90,-185,2024-01-24 15:25:56,0.0
6412,-1105,-1499,341,-668,-20,2024-01-24 15:25:56,0.0
4486,-334,-2577,145,82,-133,2024-01-24 15:25:56,0.0
3669,-1167,-1165,-545,-57,-362,2024-01-24 15:25:56,0.0
4975,-550,-1849,-1,206,-368,2024-01-24 15:25:56,0.0
3618,-328,-975,-57,376,-515,2024-01-24 15:25:56,0.0
3322,-96,-989,75,64,-361,2024-01-24 15:25:56,0.0
3319,160,-778,-166,137,-376,2024-01-24 15:25:56,0.0
3213,-213,-775,37,-12,-355,2024-01-24 15:25:57,0.0
3738,109,-597,190,9,-198,2024-01-24 15:25:57,0.0
4148,479,-584,100,-74,-107,2024-01-24 15:25:57,0.0
5044,44,-517,-53,-240,112,2024-01-24 15:25:57,0.0
5210,-701,-2067,120,-315,91,2024-01-24 15:25:57,0.0
5676,-394,-2978,345,73,180,2024-01-24 15:25:57,0.0
3910,144,-1394,533,356,221,2024-01-24 15:25:57,0.0
4418,-231,-1491,572,165,344,2024-01-24 15:25:57,0.0
3874,-691,-661,629,436,363,2024-01-24 15:25:57,0.0
3488,-757,-748,651,-34,178,2024-01-24 15:25:57,0.0
3616,-617,-630,862,184,144,2024-01-24 15:25:57,0.0
2702,-304,-510,853,237,157,2024-01-24 15:25:57,0.0
3344,-678,-434,533,-188,34,2024-01-24 15:25:57,0.0
4476,-805,-167,461,-29,-93,2024-01-24 15:25:57,0.0
5053,-797,-272,276,-117,-282,2024-01-24 15:25:57,0.0
7129,-1808,-1131,604,-715,-1,2024-01-24 15:25:57,0.0
4324,-132,-2305,336,404,-307,2024-01-24 15:25:58,0.0
3622,-676,-651,-223,-364,-446,2024-01-24 15:25:58,0.0
4949,-350,-1493,-53,223,-451,2024-01-24 15:25:58,0.0
3520,-163,-581,8,156,-459,2024-01-24 15:25:58,0.0
3259,379,-528,-130,-170,-460,2024-01-24 15:25:58,0.0
3452,-77,-669,-208,-341,-321,2024-01-24 15:25:58,0.0
3624,-222,-427,237,-235,-349,2024-01-24 15:25:58,0.0
3674,639,-468,291,-136,-158,2024-01-24 15:25:58,0.0
4543,160,-775,168,-206,64,2024-01-24 15:25:58,0.0
4835,199,-370,167,-57,146,2024-01-24 15:25:58,0.0
5946,66,-2195,-417,-776,270,2024-01-24 15:25:58,0.0
5029,-617,-2405,317,99,355,2024-01-24 15:25:58,0.0
3778,-412,-1442,487,-557,160,2024-01-24 15:25:58,0.0
4615,41,-1788,278,-41,349,2024-01-24 15:25:58,
3758,-644,-905,220,96,261,2024-01-24 15:25:58,0.0
3938,-1073,-1093,472,167,328,2024-01-24 15:25:58,0.0
2650,-5,-621,669,609,316,2024-01-24 15:25:58,0.0
2553,-725,-109,306,-48,145,2024-01-24 15:25:58,0.0
3930,-1026,-827,187,-468,-142,2024-01-24 15:25:58,0.0
5607,-670,-600,142,-113,-190,2024-01-24 15:25:59,0.0
4811,-1363,-1975,186,-741,-33,2024-01-24 15:25:59,0.0
6472,167,-3103,-65,-511,-270,2024-01-24 15:25:59,0.0
3305,60,-1647,-823,349,-178,2024-01-24 15:25:59,0.0
4884,-1104,-1705,-413,-342,-257,2024-01-24 15:25:59,0.0
3760,378,-1340,-310,395,-259,2024-01-24 15:25:59,0.0
2776,92,-1018,-424,91,-222,2024-01-24 15:25:59,0.0
3067,-237,-872,-419,24,-198,2024-01-24 15:25:59,0.0
3171,-228,-1062,-81,-43,-234,2024-01-24 15:25:59,0.0
3852,113,-1016,236,397,3,2024-01-24 15:25:59,0.0
4322,550,-447,178,146,248,2024-01-24 15:25:59,0.0
5036,-748,-585,154,26,226,2024-01-24 15:25:59,0.0
5450,608,-1715,-164,-635,-49,2024-01-24 15:25:59,0.0
5798,-534,-2760,-275,-191,-44,2024-01-24 15:25:59,0.0
3954,-580,-1828,720,566,111,2024-01-24 15:25:59,0.0
4721,-335,-1955,533,-35,128,2024-01-24 15:25:59,0.0
3863,-416,-1074,589,604,288,2024-01-24 15:25:59,0.0
2999,-946,-748,575,185,142,2024-01-24 15:26:00,0.0
2673,-535,-686,769,74,169,2024-01-24 15:26:00,0.0
2590,-244,-443,693,-27,160,2024-01-24 15:26:00,0.0
3699,-781,-596,370,-56,-91,2024-01-24 15:26:00,0.0
4274,-648,-216,303,-3,-288,2024-01-24 15:26:00,0.0
5659,-837,-572,456,-327,-238,2024-01-24 15:26:00,0.0
6162,-568,-1459,394,-513,-101,2024-01-24 15:26:00,0.0
4910,-476,-2054,19,-23,-169,2024-01-24 15:26:00,0.0
3974,-822,-1175,-381,-240,-286,2024-01-24 15:26:00,0.0
4832,-362,-1736,-161,-302,-296,2024-01-24 15:26:00,0.0
3872,210,-1196,-199,198,-469,2024-01-24 15:26:00,0.0
2957,71,-888,-220,-119,-250,2024-01-24 15:26:00,0.0
2696,-6,-660,-408,-343,-313,2024-01-24 15:26:00,0.0
3195,-26,-781,-30,-259,-142,2024-01-24 15:26:00,0.0
4142,229,-956,120,27,-13,2024-01-24 15:26:00,0.0
5005,-39,-1256,154,296,90,2024-01-24 15:26:00,0.0
4535,-152,-845,54,-25,302,2024-01-24 15:26:00,0.0
6522,134,-1586,-157,-555,48,2024-01-24 15:26:00,0.0
5230,-660,-2869,688,459,115,2024-01-24 15:26:01,0.0
3572,388,-1709,452,-215,-13,2024-01-24 15:26:01,0.0
4137,-361,-1291,372,405,368,2024-01-24 15:26:01,0.0
3486,-697,-1030,393,96,284,2024-01-24 15:26:01,0.0
3004,-980,-668,545,-60,234,2024-01-24 15:26:01,0.0
2746,-282,-798,769,-236,72,2024-01-24 15:26:01,0.0
2736,-663,-673,533,-413,29,2024-01-24 15:26:01,0.0
4135,-1084,-1176,493,-267,-191,2024-01-24 15:26:01,0.0
5048,-331,-912,409,67,-343,2024-01-24 15:26:01,0.0
4740,-623,-1096,358,-834,-155,2024-01-24 15:26:01,0.0
6961,-1069,-3061,491,-453,68,2024-01-24 15:26:01,0.0
3575,-375,-1662,-308,196,-284,2024-01-24 15:26:01,0.0
4502,-818,-2268,-227,-250,-162,2024-01-24 15:26:01,0.0
4586,114,-1713,-374,600,-469,2024-01-24 15:26:01,0.0
3040,-39,-877,-270,396,-179,2024-01-24 15:26:01,0.0
3078,-82,-784,-373,196,-263,2024-01-24 15:26:01,0.0
2913,-35,-770,-414,-178,-179,2024-01-24 15:26:01,0.0
3461,-470,-889,90,-112,-140,2024-01-24 15:26:02,0.0
4120,243,-783,292,-64,-59,2024-01-24 15:26:02,0.0
4766,285,-677,63,103,48,2024-01-24 15:26:02,0.0
5153,-297,-1746,-27,-577,220,2024-01-24 15:26:02,0.0
5644,-375,-2560,-79,28,-37,2024-01-24 15:26:02,0.0
4140,-243,-1925,481,190,219,2024-01-24 15:26:02,0.0
4540,-231,-1879,341,-122,150,2024-01-24 15:26:02,0.0
4335,-513,-1232,357,718,271,2024-01-24 15:26:02,0.0
3452,-1236,-810,592,322,207,2024-01-24 15:26:02,0.0
3330,-758,-771,969,27,90,2024-01-24 15:26:02,0.0
2593,16,-903,767,-132,95,2024-01-24 15:26:02,0.0
3249,-596,-447,347,137,-14,2024-01-24 15:26:02,0.0
3896,-1082,-256,225,-25,-129,2024-01-24 15:26:02,0.0
6267,-591,-527,349,-24,-278,2024-01-24 15:26:02,0.0
5724,-1192,-1224,424,-441,38,2024-01-24 15:26:02,0.0
5343,-729,-2413,542,-104,-126,2024-01-24 15:26:02,0.0
3657,-25,-1128,-363,529,-485,2024-01-24 15:26:02,0.0
4394,-736,-1170,-109,-325,-222,2024-01-24 15:26:03,0.0
4085,217,-1085,-361,165,-504,2024-01-24 15:26:03,0.0
3775,339,-581,-289,31,-357,2024-01-24 15:26:03,0.0
3317,-574,-742,-360,-249,-422,2024-01-24 15:26:03,0.0
2675,-760,-326,266,-228,-337,2024-01-24 15:26:03,0.0
3626,833,-584,456,-158,-240,2024-01-24 15:26:03,0.0
4743,655,-630,124,-15,164,2024-01-24 15:26:03,0.0
5118,-25,-490,-117,-301,139,2024-01-24 15:26:03,0.0
5946,-367,-1625,-300,-877,79,2024-01-24 15:26:03,0.0
5311,416,-2718,207,-511,413,2024-01-24 15:26:03,0.0
3937,-682,-2198,222,-55,66,2024-01-24 15:26:03,0.0
4407,-161,-1661,657,20,360,2024-01-24 15:26:03,0.0
3693,-481,-1039,587,505,255,2024-01-24 15:26:03,0.0
2312,-982,-607,803,-301,202,2024-01-24 15:26:03,0.0
2735,-290,-1130,1018,-186,57,2024-01-24 15:26:03,0.0
3282,-482,-798,670,-93,-61,2024-01-24 15:26:03,0.0
4057,-728,-1138,277,-140,-338,2024-01-24 15:26:03,0.0
5416,-372,-1100,420,98,-280,2024-01-24 15:26:03,0.0
4207,-1267,-1183,547,-124,-105,2024-01-24 15:26:04,0.0
7020,-1203,-2592,683,-865,-28,2024-01-24 15:26:04,0.0
4351,474,-2662,-287,908,-454,2024-01-24 15:26:04,0.0
2887,-1430,-982,-367,-499,-116,2024-01-24 15:26:04,0.0
4891,-100,-2050,-333,472,-349,2024-01-24 15:26:04,0.0
3153,17,-701,-435,385,-229,2024-01-24 15:26:04,0.0
2954,-149,-940,-490,23,-293,2024-01-24 15:26:04,0.0
3252,-19,-817,-376,-97,-157,2024-01-24 15:26:04,
