acceleration_x,acceleration_y,acceleration_z,gyroscope_x,gyroscope_y,gyroscope_z,timestamp,label
4204,-348,-735,-55,24,24,2024-01-24 15:26:23,0.0
3917,-286,-570,-95,-158,-63,2024-01-24 15:26:23,0.0
4715,258,-784,-90,57,-23,2024-01-24 15:26:23,0.0
4181,-245,-577,-297,-86,54,2024-01-24 15:26:23,0.0
4653,-384,-659,-252,186,-70,2024-01-24 15:26:23,0.0
4198,335,-459,-129,203,-40,2024-01-24 15:26:23,0.0
4420,-199,-371,-186,258,108,2024-01-24 15:26:23,0.0
4599,285,-284,-311,602,678,2024-01-24 15:26:23,0.0
2784,260,-130,-618,499,60,2024-01-24 15:26:23,0.0
3560,-584,49,-219,124,268,2024-01-24 15:26:24,0.0
3652,-12,-208,13,31,102,2024-01-24 15:26:24,0.0
3673,529,-99,-296,149,303,2024-01-24 15:26:24,0.0
4320,-408,343,-427,334,217,2024-01-24 15:26:24,0.0
3840,-85,842,-173,487,206,2024-01-24 15:26:24,0.0
4048,-122,607,-331,4,429,2024-01-24 15:26:24,0.0
4551,66,179,-585,-22,157,2024-01-24 15:26:24,0.0
5131,-601,-859,-813,-148,-160,2024-01-24 15:26:24,0.0
4806,-750,-189,-570,49,-55,2024-01-24 15:26:24,0.0
7034,-1482,-716,-711,-412,77,2024-01-24 15:26:24,0.0
4842,193,-262,-565,430,145,2024-01-24 15:26:24,0.0
4028,-346,-38,-1203,-434,475,2024-01-24 15:26:24,0.0
3365,-741,-524,-1394,235,152,2024-01-24 15:26:24,0.0
1848,-455,171,-1201,-39,204,2024-01-24 15:26:24,0.0
3143,-793,245,-1257,-24,-163,2024-01-24 15:26:24,0.0
3535,-380,261,-1128,287,-215,2024-01-24 15:26:24,0.0
3653,-1159,404,-905,4,-183,2024-01-24 15:26:24,0.0
6371,-1462,162,-328,39,12,2024-01-24 15:26:25,0.0
4024,-6,-460,-681,194,-98,2024-01-24 15:26:25,0.0
5566,-967,-401,-258,-459,190,2024-01-24 15:26:25,0.0
5001,445,-921,-151,209,-307,2024-01-24 15:26:25,0.0
6372,775,-1164,-553,15,55,2024-01-24 15:26:25,0.0
3812,-611,90,-577,386,-2,2024-01-24 15:26:25,0.0
3146,356,-74,-626,-250,-240,2024-01-24 15:26:25,0.0
2755,-181,350,-512,343,-9,2024-01-24 15:26:25,0.0
2485,405,285,-478,217,261,2024-01-24 15:26:25,0.0
3460,57,-196,-735,68,284,2024-01-24 15:26:25,0.0
4635,-844,-65,-660,-229,14,2024-01-24 15:26:25,0.0
7536,-49,-1751,-736,-143,-356,2024-01-24 15:26:25,0.0
4203,-615,-145,-534,-387,44,2024-01-24 15:26:25,0.0
7974,-1193,-818,-707,191,271,2024-01-24 15:26:25,0.0
3584,88,127,-496,-95,318,2024-01-24 15:26:25,0.0
3929,-971,-604,-1201,-166,239,2024-01-24 15:26:25,0.0
2118,-426,249,-807,72,224,2024-01-24 15:26:25,0.0
2953,107,-351,-1174,64,-42,2024-01-24 15:26:25,0.0
2903,-1872,194,-629,349,-101,2024-01-24 15:26:26,0.0
4196,-1819,-387,475,40,72,2024-01-24 15:26:26,0.0
4637,-395,170,120,296,-320,2024-01-24 15:26:26,0.0
5012,-946,-1068,354,-662,106,2024-01-24 15:26:26,0.0
5965,498,-543,703,61,34,2024-01-24 15:26:26,0.0
7586,-175,-778,252,-311,-85,2024-01-24 15:26:26,0.0
3972,-124,-129,188,510,-214,2024-01-24 15:26:26,0.0
3264,428,-10,-101,-449,-232,2024-01-24 15:26:26,0.0
2819,46,-259,-64,-41,-66,2024-01-24 15:26:26,0.0
2264,11,277,-60,-128,-84,2024-01-24 15:26:26,0.0
3243,601,478,19,293,454,2024-01-24 15:26:26,0.0
3957,-231,-515,-441,310,78,2024-01-24 15:26:26,0.0
4801,196,382,-644,316,-158,2024-01-24 15:26:26,0.0
7112,-936,-628,-692,323,-289,2024-01-24 15:26:26,0.0
7669,-1297,-665,-560,-741,18,2024-01-24 15:26:26,0.0
5605,-20,-448,-597,343,61,2024-01-24 15:26:26,0.0
3432,-568,377,-522,-157,446,2024-01-24 15:26:26,0.0
2492,-442,-559,-988,-264,1,2024-01-24 15:26:27,0.0
1710,-83,-42,-969,-302,116,2024-01-24 15:26:27,0.0
2741,-992,80,-817,180,-130,2024-01-24 15:26:27,0.0
3665,-1131,285,-448,75,-396,2024-01-24 15:26:27,0.0
4888,-962,-545,155,-362,33,2024-01-24 15:26:27,0.0
7109,-273,-1443,-130,-1132,109,2024-01-24 15:26:27,0.0
7245,153,-1272,1137,566,113,2024-01-24 15:26:27,0.0
5982,637,-509,183,165,-216,2024-01-24 15:26:27,0.0
3570,435,-417,36,174,143,2024-01-24 15:26:27,0.0
2089,-253,-220,-284,-324,-126,2024-01-24 15:26:27,0.0
2796,542,-47,-201,-221,50,2024-01-24 15:26:27,0.0
3464,-132,-333,-124,166,293,2024-01-24 15:26:27,0.0
2456,520,214,-309,376,185,2024-01-24 15:26:27,0.0
4336,-65,287,-927,43,114,2024-01-24 15:26:27,0.0
5898,-428,-1670,-790,-798,2,2024-01-24 15:26:27,0.0
6803,-1229,-632,-619,883,-330,2024-01-24 15:26:27,0.0
7877,-808,-855,-390,139,24,2024-01-24 15:26:27,0.0
4023,574,-989,-696,-97,283,2024-01-24 15:26:27,0.0
3633,-1351,-690,-1042,-25,351,2024-01-24 15:26:28,0.0
2304,-337,-464,-842,-202,113,2024-01-24 15:26:28,0.0
1644,111,-738,-1240,-169,10,2024-01-24 15:26:28,0.0
2423,-1080,163,-969,271,-25,2024-01-24 15:26:28,0.0
5011,-1840,145,-228,-27,-82,2024-01-24 15:26:28,0.0
6134,-504,-601,327,600,-45,2024-01-24 15:26:28,0.0
5039,-361,-1029,-23,-690,21,2024-01-24 15:26:28,0.0
7096,-209,-1533,1000,362,301,2024-01-24 15:26:28,0.0
5700,-81,-809,682,643,-158,2024-01-24 15:26:28,0.0
2966,615,88,-19,-124,-208,2024-01-24 15:26:28,0.0
3548,333,-391,14,-288,-141,2024-01-24 15:26:28,0.0
2509,-142,-240,25,-204,-57,2024-01-24 15:26:28,0.0
2804,139,2,140,241,78,2024-01-24 15:26:28,0.0
3213,791,597,-151,769,238,2024-01-24 15:26:28,0.0
3815,159,90,-807,236,228,2024-01-24 15:26:28,0.0
5328,-1065,-136,-753,-14,-99,2024-01-24 15:26:28,0.0
6482,-342,-783,-803,530,-324,2024-01-24 15:26:28,0.0
7684,-1332,-51,-682,-468,138,2024-01-24 15:26:29,0.0
5019,132,-372,-598,363,109,2024-01-24 15:26:29,0.0
3633,-891,165,-892,-512,322,2024-01-24 15:26:29,0.0
3179,-627,-591,-923,-20,-88,2024-01-24 15:26:29,
2263,-503,-300,-826,-188,-144,2024-01-24 15:26:29,0.0
2590,-333,526,-849,592,-119,2024-01-24 15:26:29,0.0
3848,-1528,177,-571,198,-136,2024-01-24 15:26:29,0.0
3776,-1843,-49,570,-212,308,2024-01-24 15:26:29,0.0
4640,-475,481,367,260,-172,2024-01-24 15:26:29,0.0
6859,241,-968,661,-488,162,2024-01-24 15:26:29,0.0
7325,424,-465,548,-198,147,2024-01-24 15:26:29,0.0
6055,-568,-337,-127,131,-285,2024-01-24 15:26:29,0.0
3153,-231,141,331,-411,-83,2024-01-24 15:26:29,0.0
2589,256,-382,28,-507,-294,2024-01-24 15:26:30,0.0
1023,177,183,-97,-607,-138,2024-01-24 15:26:30,0.0
2491,-17,-145,149,-524,62,2024-01-24 15:26:30,0.0
4201,1052,-314,-30,749,95,2024-01-24 15:26:30,0.0
3943,-346,938,-1087,162,299,2024-01-24 15:26:30,0.0
6171,-622,-2233,-720,-912,272,2024-01-24 15:26:30,0.0
6633,-887,-1546,-1010,644,-123,2024-01-24 15:26:30,0.0
7127,-1161,-597,-899,162,353,2024-01-24 15:26:30,0.0
4220,-408,-774,-371,66,525,2024-01-24 15:26:30,0.0
3384,-972,-376,-715,3,375,2024-01-24 15:26:30,0.0
1918,-265,-78,-575,-198,110,2024-01-24 15:26:30,0.0
2710,-188,-444,-1049,-175,-265,2024-01-24 15:26:30,0.0
2888,-1217,270,-404,446,-98,2024-01-24 15:26:30,0.0
3865,-1232,-189,102,341,-195,2024-01-24 15:26:30,0.0
5064,-999,-48,509,187,-59,2024-01-24 15:26:30,0.0
6133,-588,-744,-127,-549,-149,2024-01-24 15:26:30,0.0
6042,228,-968,1075,719,187,2024-01-24 15:26:30,0.0
5683,344,-368,156,-302,-111,2024-01-24 15:26:30,0.0
4393,-973,-210,626,194,-241,2024-01-24 15:26:30,0.0
3081,1618,-162,295,-248,-370,2024-01-24 15:26:30,0.0
2148,195,154,-103,-23,-12,2024-01-24 15:26:30,0.0
3160,-104,343,-3,53,63,2024-01-24 15:26:30,0.0
2980,741,-358,43,527,419,2024-01-24 15:26:31,0.0
3220,1070,367,-976,385,-101,2024-01-24 15:26:31,0.0
6076,-1575,-475,-797,-686,96,2024-01-24 15:26:31,0.0
7073,-979,-168,-625,1065,-384,2024-01-24 15:26:31,0.0
7296,-606,165,-274,-827,22,2024-01-24 15:26:31,0.0
5512,325,-586,-883,20,20,2024-01-24 15:26:31,0.0
2163,-490,316,-896,-362,704,2024-01-24 15:26:31,0.0
2405,-802,-548,-1228,-621,-153,2024-01-24 15:26:31,0.0
2186,-520,58,-772,-83,217,2024-01-24 15:26:31,0.0
3397,-577,-186,-888,63,-277,2024-01-24 15:26:31,0.0
3839,-1773,-482,-536,-87,-126,2024-01-24 15:26:31,0.0
4423,-1286,-13,589,328,119,2024-01-24 15:26:31,0.0
7277,556,-1374,-80,-1071,-71,2024-01-24 15:26:31,0.0
7077,244,-562,676,1122,23,2024-01-24 15:26:31,0.0
5903,64,-1013,481,-488,-132,2024-01-24 15:26:31,0.0
2529,35,-200,284,-63,-251,2024-01-24 15:26:31,0.0
2485,710,-562,325,-347,-167,2024-01-24 15:26:31,0.0
1424,43,339,113,109,-15,2024-01-24 15:26:31,0.0
3808,217,330,251,377,297,2024-01-24 15:26:32,0.0
4315,744,-168,51,858,465,2024-01-24 15:26:32,0.0
3288,95,156,-785,98,-384,2024-01-24 15:26:32,0.0
7215,-1031,-2552,-604,-1095,26,2024-01-24 15:26:32,0.0
5956,-736,5,-741,1141,-277,2024-01-24 15:26:32,0.0
7604,-599,-859,-763,-528,461,2024-01-24 15:26:32,0.0
4137,-201,-604,-1394,517,23,2024-01-24 15:26:32,0.0
2608,-1003,-437,-915,-326,500,2024-01-24 15:26:32,0.0
2707,-775,-402,-977,124,-194,2024-01-24 15:26:32,0.0
1901,-204,539,-952,255,-152,2024-01-24 15:26:32,0.0
3603,-1467,345,-844,-17,-320,2024-01-24 15:26:32,0.0
4576,-978,-235,-178,85,-213,2024-01-24 15:26:32,0.0
4662,-874,682,647,585,285,2024-01-24 15:26:32,0.0
6024,-453,-1441,-530,-1541,-299,2024-01-24 15:26:32,0.0
6919,671,-1255,981,683,502,2024-01-24 15:26:32,0.0
5930,-509,163,451,-216,-327,2024-01-24 15:26:32,0.0
4516,698,-721,476,52,-73,2024-01-24 15:26:32,0.0
2418,57,232,149,-132,-123,2024-01-24 15:26:33,0.0
1926,333,-19,178,-32,-72,2024-01-24 15:26:33,0.0
3139,476,335,-3,-187,178,2024-01-24 15:26:33,0.0
2979,419,-308,95,306,702,2024-01-24 15:26:33,0.0
3184,210,55,-932,-321,134,2024-01-24 15:26:33,0.0
6407,-984,-2553,-601,-1251,405,2024-01-24 15:26:33,0.0
5849,-713,148,-834,1169,-750,2024-01-24 15:26:33,0.0
8288,-808,-7,-67,-1052,267,2024-01-24 15:26:33,0.0
5613,326,-1389,-468,235,-153,2024-01-24 15:26:33,0.0
2800,-771,-93,-501,16,643,2024-01-24 15:26:33,0.0
2082,218,-448,-1006,-555,52,2024-01-24 15:26:33,0.0
2749,-234,-536,-1398,-118,82,2024-01-24 15:26:33,0.0
2502,-1345,-330,-968,-30,94,2024-01-24 15:26:33,0.0
4709,-2135,-635,-134,346,-4,2024-01-24 15:26:33,0.0
5232,458,134,369,920,-199,2024-01-24 15:26:33,0.0
5386,-207,-862,-8,-227,75,2024-01-24 15:26:33,0.0
7119,275,-1233,511,404,166,2024-01-24 15:26:33,0.0
6522,-127,-882,-354,230,-240,2024-01-24 15:26:33,0.0
2859,-673,445,24,79,-29,2024-01-24 15:26:34,0.0
2173,664,-366,-10,-425,-357,2024-01-24 15:26:34,0.0
2603,462,-56,-219,53,-112,2024-01-24 15:26:34,0.0
2960,-430,-41,122,317,501,2024-01-24 15:26:34,0.0
2561,845,-30,-624,254,-113,2024-01-24 15:26:34,0.0
5648,-1231,-981,-266,-709,290,2024-01-24 15:26:34,0.0
9396,-1280,-1213,-467,616,-470,2024-01-24 15:26:34,0.0
7054,-813,24,-317,380,241,2024-01-24 15:26:34,0.0
3621,215,-709,-463,-348,231,2024-01-24 15:26:34,0.0
2717,-650,-572,-928,-57,316,2024-01-24 15:26:34,0.0
1374,-463,-364,-792,-213,194,2024-01-24 15:26:34,0.0
2684,-432,179,-775,-269,85,2024-01-24 15:26:34,0.0
3618,-1276,-389,-450,149,-243,2024-01-24 15:26:34,0.0
4767,-2502,-201,338,209,195,2024-01-24 15:26:34,0.0
3986,218,-461,261,320,-101,2024-01-24 15:26:34,0.0
5919,-715,-1619,86,-557,89,2024-01-24 15:26:34,
6151,243,-967,904,752,-318,2024-01-24 15:26:34,0.0
4360,837,67,331,227,-96,2024-01-24 15:26:35,0.0
4238,-192,365,-93,-168,37,2024-01-24 15:26:35,0.0
4702,518,-187,36,-19,133,2024-01-24 15:26:35,0.0
3014,800,647,-511,45,275,2024-01-24 15:26:35,0.0
3619,662,259,-630,-125,437,2024-01-24 15:26:35,0.0
3875,526,-37,-1105,26,419,2024-01-24 15:26:35,0.0
3825,-2317,-265,-323,687,5,2024-01-24 15:26:35,0.0
4944,-575,-1092,159,-150,-117,2024-01-24 15:26:35,0.0
6128,431,-1505,-1206,21,-128,2024-01-24 15:26:35,0.0
6508,-1575,-597,-1159,-21,79,2024-01-24 15:26:35,0.0
4157,353,-201,-1408,30,58,2024-01-24 15:26:35,0.0
3664,-337,-412,-1756,-563,153,2024-01-24 15:26:35,0.0
3048,-1081,197,-1363,-408,144,2024-01-24 15:26:35,0.0
3740,-403,-210,-1077,-506,-10,2024-01-24 15:26:35,0.0
5133,-547,282,-822,499,137,2024-01-24 15:26:35,0.0
3795,-89,522,-1058,238,-4,2024-01-24 15:26:35,0.0
6096,164,-3435,-723,-163,702,2024-01-24 15:26:35,0.0
5407,-256,-881,-781,985,93,2024-01-24 15:26:35,0.0
3978,-188,-749,-826,-81,-170,2024-01-24 15:26:36,0.0
3449,138,-754,-984,256,-37,2024-01-24 15:26:36,0.0
3608,-430,-390,-884,-234,-201,2024-01-24 15:26:36,0.0
3422,-169,-200,-539,18,98,2024-01-24 15:26:36,0.0
3213,-397,227,-231,-102,82,2024-01-24 15:26:36,0.0
4669,-299,-414,-144,-237,439,2024-01-24 15:26:36,0.0
6177,-16,922,-195,786,-200,2024-01-24 15:26:36,0.0
6531,276,-2198,-549,-931,-376,2024-01-24 15:26:36,0.0
3874,55,-1409,-470,742,-449,2024-01-24 15:26:36,0.0
3652,-589,-58,-377,318,135,2024-01-24 15:26:36,0.0
4774,-196,-1378,-653,252,250,2024-01-24 15:26:36,0.0
2371,-282,-212,-748,343,474,2024-01-24 15:26:36,0.0
3498,-379,-412,-1025,-94,252,2024-01-24 15:26:36,0.0
3729,-1052,282,-973,366,43,2024-01-24 15:26:36,0.0
5056,-227,-197,-916,-124,-277,2024-01-24 15:26:36,0.0
5110,-1263,692,-458,200,389,2024-01-24 15:26:36,0.0
5604,-866,-192,-123,103,208,2024-01-24 15:26:36,0.0
4780,629,-2273,-377,15,225,2024-01-24 15:26:37,0.0
4279,56,-791,-277,266,222,2024-01-24 15:26:37,0.0
4598,-646,-545,-683,-195,-651,2024-01-24 15:26:37,0.0
2798,821,-478,-808,158,-117,2024-01-24 15:26:37,0.0
3425,-844,246,-486,-303,3,2024-01-24 15:26:37,0.0
3939,-145,138,-96,-69,-50,2024-01-24 15:26:37,0.0
4224,-192,466,280,-280,477,2024-01-24 15:26:37,0.0
5758,1083,-231,-278,354,2,2024-01-24 15:26:37,0.0
4580,-879,-423,-571,-314,-125,2024-01-24 15:26:37,0.0
5312,620,-2056,-803,12,-610,2024-01-24 15:26:37,0.0
4646,-1493,-453,-337,405,-13,2024-01-24 15:26:37,0.0
4883,739,-1035,-516,-221,163,2024-01-24 15:26:37,0.0
2508,-326,-316,-714,424,359,2024-01-24 15:26:37,0.0
3119,-404,-204,-962,-288,308,2024-01-24 15:26:37,0.0
3377,-994,27,-902,24,50,2024-01-24 15:26:37,0.0
4351,-765,237,-921,-261,-311,2024-01-24 15:26:37,0.0
4916,-1418,-294,-74,12,79,2024-01-24 15:26:37,0.0
5501,-142,645,-170,283,68,2024-01-24 15:26:37,0.0
5921,-462,-2272,-380,-501,375,2024-01-24 15:26:38,0.0
3649,233,-750,-56,502,151,2024-01-24 15:26:38,0.0
4810,-635,-272,-101,-296,-199,2024-01-24 15:26:38,0.0
3672,426,-971,-230,288,-262,2024-01-24 15:26:38,0.0
2940,-68,-43,-294,-173,-82,2024-01-24 15:26:38,0.0
3717,136,-313,-183,-41,6,2024-01-24 15:26:38,0.0
3481,-292,517,57,-142,222,2024-01-24 15:26:38,0.0
5096,46,-402,-11,-209,512,2024-01-24 15:26:38,0.0
6253,-157,1004,-172,893,-100,2024-01-24 15:26:38,0.0
5472,762,-1816,-703,-976,-354,2024-01-24 15:26:38,0.0
4524,-780,-1414,-586,789,-337,2024-01-24 15:26:38,0.0
4406,-244,-2,-462,-54,130,2024-01-24 15:26:38,0.0
4394,-291,-1338,-548,412,256,2024-01-24 15:26:38,0.0
2718,-212,216,-880,131,306,2024-01-24 15:26:38,0.0
3514,-663,-376,-938,93,156,2024-01-24 15:26:38,0.0
3413,-810,570,-944,-26,-121,2024-01-24 15:26:38,0.0
4645,-509,202,-590,103,-242,2024-01-24 15:26:38,0.0
5090,-882,499,-279,268,65,2024-01-24 15:26:39,0.0
5930,482,-1531,-684,-727,199,2024-01-24 15:26:39,0.0
4804,-316,-1461,-358,581,421,2024-01-24 15:26:39,0.0
2917,464,178,-758,-331,-62,2024-01-24 15:26:39,0.0
5595,-492,-1295,-496,-480,-74,2024-01-24 15:26:39,0.0
3088,394,-128,-743,366,-49,2024-01-24 15:26:39,0.0
3591,-733,117,-389,-262,18,2024-01-24 15:26:39,0.0
3632,-6,228,-122,50,55,2024-01-24 15:26:39,0.0
4400,12,20,36,-354,449,2024-01-24 15:26:39,0.0
5630,353,142,-288,237,155,2024-01-24 15:26:39,0.0
5007,-568,-1047,-609,-558,-17,2024-01-24 15:26:39,0.0
5149,745,-2040,-660,-37,-595,2024-01-24 15:26:39,0.0
3355,-577,-525,-1110,193,236,2024-01-24 15:26:39,0.0
5518,-898,-1157,-786,-133,411,2024-01-24 15:26:39,0.0
3307,-423,-473,-855,338,138,2024-01-24 15:26:39,0.0
4018,-369,-545,-1011,-220,305,2024-01-24 15:26:39,0.0
3420,-969,-168,-974,3,4,2024-01-24 15:26:39,0.0
4591,-581,-271,-773,-10,-34,2024-01-24 15:26:39,0.0
3355,-1075,-790,-470,1,-9,2024-01-24 15:26:40,0.0
4814,-60,-808,-508,-200,48,2024-01-24 15:26:40,0.0
5651,-18,-2139,-779,-274,429,2024-01-24 15:26:40,0.0
2590,-29,-445,-671,298,137,2024-01-24 15:26:40,0.0
6596,-490,-1254,-640,-907,-35,2024-01-24 15:26:40,0.0
3707,208,-891,-866,486,-246,2024-01-24 15:26:40,0.0
2432,-363,-144,-626,-123,-65,2024-01-24 15:26:40,0.0
3001,136,-272,-317,227,-32,2024-01-24 15:26:40,0.0
2450,27,44,-149,345,298,2024-01-24 15:26:40,0.0
3123,662,-506,-423,235,290,2024-01-24 15:26:40,0.0
3885,-336,-905,-649,479,68,2024-01-24 15:26:40,
3676,-1345,-2047,-624,-991,-153,2024-01-24 15:26:40,0.0
7969,-19,-1217,-1176,-97,70,2024-01-24 15:26:40,0.0
7464,-1225,-1263,-1413,-53,424,2024-01-24 15:26:40,0.0
5258,-1348,-1045,-474,152,315,2024-01-24 15:26:40,0.0
4028,-342,-299,-570,73,300,2024-01-24 15:26:40,0.0
2422,70,-153,-895,239,-101,2024-01-24 15:26:40,0.0
2231,-603,-169,-948,414,63,2024-01-24 15:26:40,0.0
3482,-1306,-421,-619,139,-235,2024-01-24 15:26:41,0.0
4365,-979,-460,-71,411,-120,2024-01-24 15:26:41,0.0
4076,-498,-524,-36,165,-98,2024-01-24 15:26:41,0.0
6296,-698,-1329,273,-247,160,2024-01-24 15:26:41,0.0
6498,1050,-990,530,550,-76,2024-01-24 15:26:41,0.0
5121,-223,-611,-48,340,-175,2024-01-24 15:26:41,0.0
3300,187,-131,243,-57,53,2024-01-24 15:26:41,0.0
3723,504,-492,-156,-192,-208,2024-01-24 15:26:41,0.0
2081,-14,-99,-27,236,48,2024-01-24 15:26:41,0.0
2743,131,654,-192,49,45,2024-01-24 15:26:41,0.0
3642,634,-773,-12,66,604,2024-01-24 15:26:41,0.0
4627,-364,138,-865,559,-8,2024-01-24 15:26:41,0.0
5911,-1482,-1259,-80,-453,-16,2024-01-24 15:26:41,0.0
6276,-145,-861,-813,123,-311,2024-01-24 15:26:41,0.0
7477,-1136,-655,-134,22,402,2024-01-24 15:26:41,0.0
4237,-225,-439,-687,177,-40,2024-01-24 15:26:41,0.0
3215,-351,-187,-639,-492,290,2024-01-24 15:26:41,0.0
2883,-501,-580,-956,-226,-134,2024-01-24 15:26:42,0.0
2359,29,28,-842,-152,31,2024-01-24 15:26:42,0.0
3062,-612,10,-1056,19,-215,2024-01-24 15:26:42,0.0
3862,-1550,-505,-535,62,-177,2024-01-24 15:26:42,0.0
5856,-1046,298,468,122,-27,2024-01-24 15:26:42,0.0
5328,-254,-1246,-108,-656,-166,2024-01-24 15:26:42,0.0
5812,5,-951,796,353,340,2024-01-24 15:26:42,0.0
6013,377,-750,177,-320,-41,2024-01-24 15:26:42,0.0
4045,-215,-803,139,-201,108,2024-01-24 15:26:42,0.0
3373,494,-637,-119,-520,-251,2024-01-24 15:26:42,0.0
3078,121,-385,-140,-274,7,2024-01-24 15:26:42,0.0
2916,43,-281,-83,-50,-92,2024-01-24 15:26:42,0.0
2990,-3,-9,59,217,185,2024-01-24 15:26:42,0.0
3693,491,85,-330,35,280,2024-01-24 15:26:42,0.0
4940,209,-386,-592,-62,248,2024-01-24 15:26:42,0.0
5159,-294,-1906,-493,-704,145,2024-01-24 15:26:42,0.0
5196,-759,-1877,-593,-81,-174,2024-01-24 15:26:42,0.0
7621,-1048,-1611,-167,-452,313,2024-01-24 15:26:42,0.0
4467,-58,-900,-282,10,18,2024-01-24 15:26:43,0.0
3601,-427,-611,-394,65,402,2024-01-24 15:26:43,0.0
2769,-186,-604,-560,191,127,2024-01-24 15:26:43,0.0
2442,-336,-231,-611,366,110,2024-01-24 15:26:43,0.0
2808,-944,-478,-826,6,-47,2024-01-24 15:26:43,0.0
3946,-1460,-329,-94,36,-207,2024-01-24 15:26:43,0.0
5174,-304,-119,412,140,-388,2024-01-24 15:26:43,0.0
5810,-71,-2172,-113,-740,-5,2024-01-24 15:26:43,0.0
6927,601,-1660,578,133,-37,2024-01-24 15:26:43,0.0
5282,-370,-760,382,337,-116,2024-01-24 15:26:43,0.0
4000,322,-851,228,-468,-74,2024-01-24 15:26:43,0.0
3395,274,-733,158,167,-124,2024-01-24 15:26:43,0.0
1670,-7,-311,-5,28,117,2024-01-24 15:26:43,0.0
2015,367,225,-220,-215,13,2024-01-24 15:26:43,0.0
2894,141,-255,-62,-74,243,2024-01-24 15:26:43,0.0
4358,1042,-584,-872,389,149,2024-01-24 15:26:43,0.0
5504,-625,-1451,-850,-112,319,2024-01-24 15:26:43,0.0
6331,-1233,-1895,-931,-167,-426,2024-01-24 15:26:44,0.0
7765,150,-1092,-290,-31,267,2024-01-24 15:26:44,0.0
5515,-180,-1377,-565,-59,14,2024-01-24 15:26:44,0.0
3560,-513,-366,-544,235,578,2024-01-24 15:26:44,0.0
2224,348,-561,-985,-49,29,2024-01-24 15:26:44,0.0
2356,-632,-153,-1056,-73,207,2024-01-24 15:26:44,0.0
2440,-358,139,-863,412,-61,2024-01-24 15:26:44,0.0
4922,-1848,-429,-576,60,-95,2024-01-24 15:26:44,0.0
5589,-1059,165,474,780,-322,2024-01-24 15:26:44,0.0
4502,941,-1615,-121,-1056,-110,2024-01-24 15:26:44,0.0
7283,437,-1476,328,577,69,2024-01-24 15:26:44,0.0
6234,514,-375,-308,35,-245,2024-01-24 15:26:44,0.0
3526,391,-470,-161,280,3,2024-01-24 15:26:44,0.0
2447,-245,-314,-254,-420,-36,2024-01-24 15:26:44,0.0
2457,266,-173,-77,48,52,2024-01-24 15:26:44,0.0
3177,403,178,-277,192,371,2024-01-24 15:26:44,0.0
3912,477,44,-352,438,547,2024-01-24 15:26:44,0.0
4024,327,165,-1059,211,121,2024-01-24 15:26:45,0.0
5574,-696,-67,-841,-56,44,2024-01-24 15:26:45,0.0
6077,-326,-1445,-806,62,-294,2024-01-24 15:26:45,0.0
5373,-1282,-699,-479,-656,295,2024-01-24 15:26:45,0.0
6715,-712,-780,-328,281,1,2024-01-24 15:26:45,0.0
3114,-574,158,-133,143,380,2024-01-24 15:26:45,0.0
2890,-142,-563,-496,-521,18,2024-01-24 15:26:45,0.0
2737,-571,-725,-563,44,99,2024-01-24 15:26:45,0.0
2684,-16,267,-783,457,-237,2024-01-24 15:26:45,0.0
3469,-958,171,-602,171,-160,2024-01-24 15:26:45,0.0
4466,-1563,-180,52,-35,48,2024-01-24 15:26:45,0.0
4283,-947,-252,194,-104,-204,2024-01-24 15:26:45,0.0
6841,139,-1117,332,-74,-26,2024-01-24 15:26:45,0.0
6727,977,-705,64,261,-62,2024-01-24 15:26:45,0.0
4114,-35,-5,-119,463,-226,2024-01-24 15:26:45,0.0
3959,309,-420,14,-623,82,2024-01-24 15:26:45,0.0
3277,370,-505,-62,22,-111,2024-01-24 15:26:45,0.0
1447,-217,254,-12,-114,63,2024-01-24 15:26:45,0.0
3710,150,388,176,95,262,2024-01-24 15:26:46,0.0
3960,754,-91,11,452,395,2024-01-24 15:26:46,0.0
3819,313,253,-809,173,-40,2024-01-24 15:26:46,0.0
6140,-1378,-946,-500,-778,172,2024-01-24 15:26:46,0.0
6442,-1028,-1391,-546,257,12,2024-01-24 15:26:46,0.0
6739,-900,-313,-323,132,104,2024-01-24 15:26:46,
3967,-433,-615,-298,100,324,2024-01-24 15:26:46,0.0
2363,-747,-490,-561,-267,227,2024-01-24 15:26:46,0.0
2093,366,-143,-716,-247,85,2024-01-24 15:26:46,0.0
3142,-576,-126,-1014,201,-97,2024-01-24 15:26:46,0.0
3160,-942,198,-697,227,-376,2024-01-24 15:26:46,0.0
4547,-1381,357,94,223,193,2024-01-24 15:26:46,0.0
4511,-1029,-199,309,-94,-283,2024-01-24 15:26:46,0.0
7574,-106,-714,544,-422,269,2024-01-24 15:26:46,0.0
6444,870,-205,54,424,-290,2024-01-24 15:26:46,0.0
5232,-893,-522,443,-130,237,2024-01-24 15:26:46,0.0
3412,727,-28,130,-365,-452,2024-01-24 15:26:46,0.0
3048,622,-584,-29,-351,-8,2024-01-24 15:26:46,0.0
1942,-47,102,-17,-427,-30,2024-01-24 15:26:47,0.0
3180,278,39,63,-37,241,2024-01-24 15:26:47,0.0
3035,343,-237,-162,-66,303,2024-01-24 15:26:47,0.0
4263,512,375,-793,-4,249,2024-01-24 15:26:47,0.0
5260,-907,-159,-724,-71,107,2024-01-24 15:26:47,0.0
6322,-586,-1562,-764,-90,-110,2024-01-24 15:26:47,0.0
6655,-671,-980,-524,-297,158,2024-01-24 15:26:47,0.0
5544,-491,-383,-953,660,34,2024-01-24 15:26:47,0.0
3195,-578,-62,-647,-372,322,2024-01-24 15:26:47,0.0
2913,-413,-713,-967,-157,32,2024-01-24 15:26:47,0.0
2382,-131,-67,-884,140,26,2024-01-24 15:26:47,0.0
2879,-1002,36,-889,213,-188,2024-01-24 15:26:47,0.0
3626,-1476,-264,-146,3,-114,2024-01-24 15:26:47,0.0
4892,-940,-29,467,279,-106,2024-01-24 15:26:47,0.0
6097,-138,-1379,224,-1075,-39,2024-01-24 15:26:47,0.0
7528,438,-1620,823,811,-101,2024-01-24 15:26:47,0.0
5712,275,-136,-50,-128,-24,2024-01-24 15:26:47,0.0
4292,-628,-474,466,147,3,2024-01-24 15:26:48,0.0
2467,630,-470,188,50,-242,2024-01-24 15:26:48,0.0
1794,355,238,169,-310,-80,2024-01-24 15:26:48,0.0
4139,315,114,342,157,181,2024-01-24 15:26:48,0.0
3419,496,-262,15,487,247,2024-01-24 15:26:48,0.0
3114,955,-106,-726,402,70,2024-01-24 15:26:48,0.0
6195,-758,-425,-1011,-234,75,2024-01-24 15:26:48,0.0
6627,-975,-631,-787,1190,-165,2024-01-24 15:26:48,0.0
6826,-1509,-335,-579,-6,43,2024-01-24 15:26:48,0.0
4263,56,-209,-689,323,136,2024-01-24 15:26:48,0.0
2864,-498,-149,-762,-524,393,2024-01-24 15:26:48,0.0
2541,-722,-401,-980,-124,-94,2024-01-24 15:26:48,0.0
2629,-231,19,-689,-282,-33,2024-01-24 15:26:48,0.0
3052,-612,244,-847,115,-457,2024-01-24 15:26:48,0.0
4200,-1327,44,-57,-35,-129,2024-01-24 15:26:48,0.0
4549,-744,814,203,521,-113,2024-01-24 15:26:48,0.0
6868,-177,-1124,62,-944,83,2024-01-24 15:26:48,0.0
6809,123,-937,708,-52,-56,2024-01-24 15:26:49,0.0
5571,638,-290,440,58,-225,2024-01-24 15:26:49,0.0
3409,459,53,0,-259,-60,2024-01-24 15:26:49,0.0
2529,366,-77,90,-213,-160,2024-01-24 15:26:49,0.0
2375,392,-87,-127,-384,88,2024-01-24 15:26:49,0.0
3446,-229,214,-37,598,248,2024-01-24 15:26:49,0.0
3242,1775,604,-517,681,102,2024-01-24 15:26:49,0.0
4259,-88,15,-1054,64,241,2024-01-24 15:26:49,0.0
6144,-804,-407,-907,-78,-170,2024-01-24 15:26:49,0.0
6407,-1099,-433,-836,105,70,2024-01-24 15:26:49,0.0
7246,-1019,-264,-572,-161,39,2024-01-24 15:26:49,0.0
4155,-350,9,-678,255,194,2024-01-24 15:26:49,0.0
2198,-270,-22,-693,-488,308,2024-01-24 15:26:49,0.0
2020,-415,-117,-1038,-340,-46,2024-01-24 15:26:49,0.0
3224,-527,-498,-751,76,-102,2024-01-24 15:26:49,0.0
3124,-896,438,-800,183,-365,2024-01-24 15:26:49,0.0
5116,-1835,150,303,279,188,2024-01-24 15:26:49,0.0
5605,268,-137,-117,-350,-321,2024-01-24 15:26:49,0.0
5616,727,-557,217,53,-63,2024-01-24 15:26:50,0.0
5805,-425,-51,589,164,-111,2024-01-24 15:26:50,0.0
4113,297,23,182,-359,-437,2024-01-24 15:26:50,0.0
4331,653,-69,493,-151,107,2024-01-24 15:26:50,0.0
2829,-28,346,9,109,98,2024-01-24 15:26:50,0.0
2881,523,368,-199,-343,180,2024-01-24 15:26:50,0.0
3247,541,-60,-208,80,350,2024-01-24 15:26:50,0.0
3868,556,427,-890,350,86,2024-01-24 15:26:50,0.0
4153,-1280,-1010,-466,-367,76,2024-01-24 15:26:50,0.0
6149,-820,-1019,-506,-377,-124,2024-01-24 15:26:50,0.0
5749,-133,-394,-1167,-512,81,2024-01-24 15:26:50,0.0
5953,-1648,-38,-464,5,215,2024-01-24 15:26:50,0.0
3242,218,14,-576,-523,46,2024-01-24 15:26:50,0.0
3462,76,-222,-1227,-197,-63,2024-01-24 15:26:50,0.0
1680,-764,62,-715,138,70,2024-01-24 15:26:50,0.0
3766,-1795,-363,-375,338,-70,2024-01-24 15:26:50,0.0
3464,480,-1327,-481,-334,-39,2024-01-24 15:26:50,0.0
7586,-963,-1339,308,-272,631,2024-01-24 15:26:50,0.0
5293,-210,73,387,529,-482,2024-01-24 15:26:51,0.0
5149,1491,-710,294,121,254,2024-01-24 15:26:51,0.0
2811,-428,576,-713,-158,-276,2024-01-24 15:26:51,0.0
4179,735,-491,-111,-93,172,2024-01-24 15:26:51,0.0
2834,179,-78,-528,383,110,2024-01-24 15:26:51,0.0
3627,374,149,-541,334,151,2024-01-24 15:26:51,0.0
1499,-1352,-723,-112,161,187,2024-01-24 15:26:51,0.0
1354,-689,411,-531,-383,86,2024-01-24 15:26:51,0.0
10739,1585,-1087,-1483,-282,-328,2024-01-24 15:26:51,0.0
3087,-1998,360,-702,845,206,2024-01-24 15:26:51,0.0
6239,-703,971,-1236,-630,-198,2024-01-24 15:26:51,0.0
3867,179,522,-854,891,177,2024-01-24 15:26:51,0.0
4860,-2196,360,-1016,-476,301,2024-01-24 15:26:51,0.0
4338,-858,285,103,450,-22,2024-01-24 15:26:51,0.0
5333,1293,-1617,-547,-787,395,2024-01-24 15:26:51,0.0
7073,96,-1746,-898,837,-400,2024-01-24 15:26:51,0.0
2717,-624,1097,-838,-92,-226,2024-01-24 15:26:51,0.0
5256,689,-948,-740,-930,-190,2024-01-24 15:26:52,
3185,-119,-107,-509,-327,41,2024-01-24 15:26:52,0.0
3347,-374,-30,-246,-594,-1,2024-01-24 15:26:52,0.0
4014,-69,50,219,-378,313,2024-01-24 15:26:52,0.0
5329,525,-14,-174,69,361,2024-01-24 15:26:52,0.0
4925,-395,856,-253,675,-139,2024-01-24 15:26:52,0.0
5819,1009,-2612,-620,-660,-140,2024-01-24 15:26:52,0.0
4325,-1420,-919,-661,1038,-201,2024-01-24 15:26:52,0.0
5023,910,-1111,-636,-279,332,2024-01-24 15:26:52,0.0
3044,-847,-745,-949,725,184,2024-01-24 15:26:52,0.0
3242,-559,-176,-839,-278,343,2024-01-24 15:26:52,0.0
3351,-557,-289,-905,140,16,2024-01-24 15:26:52,0.0
4244,-488,141,-1037,-286,-138,2024-01-24 15:26:52,0.0
5032,-677,-162,-778,108,-146,2024-01-24 15:26:52,0.0
5561,-875,1212,-407,524,96,2024-01-24 15:26:52,0.0
5181,-58,-1765,-599,-730,252,2024-01-24 15:26:52,0.0
4586,295,-1436,-337,495,269,2024-01-24 15:26:52,0.0
3944,-206,-342,-573,-128,-51,2024-01-24 15:26:52,0.0
4535,-5,-1071,-371,-3,-345,2024-01-24 15:26:53,0.0
2651,468,46,-465,146,64,2024-01-24 15:26:53,0.0
4102,-458,-138,-351,-238,-46,2024-01-24 15:26:53,0.0
3426,93,229,-61,-54,195,2024-01-24 15:26:53,0.0
4939,-242,233,115,-233,437,2024-01-24 15:26:53,0.0
5537,-73,37,-53,141,32,2024-01-24 15:26:53,0.0
5598,620,-815,-430,-311,-275,2024-01-24 15:26:53,0.0
4454,-257,-2151,-678,374,-480,2024-01-24 15:26:53,0.0
3625,-530,53,-531,412,115,2024-01-24 15:26:53,0.0
4486,257,-1032,-720,55,274,2024-01-24 15:26:53,0.0
3149,-856,-368,-786,134,306,2024-01-24 15:26:53,0.0
3732,-121,-152,-738,-158,173,2024-01-24 15:26:53,0.0
3588,-905,132,-738,77,125,2024-01-24 15:26:53,0.0
4295,-812,398,-626,-136,-191,2024-01-24 15:26:53,0.0
4207,-740,-813,-269,-396,-136,2024-01-24 15:26:53,0.0
6122,335,1010,-294,690,339,2024-01-24 15:26:53,0.0
5567,-1245,-1531,-606,-300,420,2024-01-24 15:26:53,0.0
3163,519,-714,-146,600,55,2024-01-24 15:26:54,0.0
4827,-1086,228,-107,-334,-75,2024-01-24 15:26:54,0.0
4263,715,-1388,-65,111,-367,2024-01-24 15:26:54,0.0
2587,456,458,-486,-19,-34,2024-01-24 15:26:54,0.0
4067,-400,-264,-382,-267,-31,2024-01-24 15:26:54,0.0
3426,-110,517,-30,-326,206,2024-01-24 15:26:54,0.0
3992,-60,46,226,-469,511,2024-01-24 15:26:54,0.0
5893,499,330,-47,74,303,2024-01-24 15:26:54,0.0
6151,-337,-1508,-1047,-974,-522,2024-01-24 15:26:54,0.0
3912,-237,-1678,-734,699,-503,2024-01-24 15:26:54,0.0
5471,-491,-247,-110,7,247,2024-01-24 15:26:54,0.0
4861,545,-1591,-1005,168,-61,2024-01-24 15:26:54,0.0
2936,-1223,-225,-543,218,650,2024-01-24 15:26:54,0.0
3059,-336,-418,-789,-172,159,2024-01-24 15:26:54,0.0
2496,-311,119,-866,-11,275,2024-01-24 15:26:54,0.0
4696,-927,155,-965,-387,-5,2024-01-24 15:26:54,0.0
4701,-1521,-531,-49,142,59,2024-01-24 15:26:54,0.0
5699,683,-436,-372,-342,222,2024-01-24 15:26:54,0.0
5786,-1163,-2561,-353,188,564,2024-01-24 15:26:55,0.0
3029,578,-727,-369,159,7,2024-01-24 15:26:55,0.0
5326,-651,-1711,-427,-235,-141,2024-01-24 15:26:55,0.0
2902,136,-750,-453,30,4,2024-01-24 15:26:55,0.0
2994,-414,-348,-288,-259,-61,2024-01-24 15:26:55,0.0
3764,52,-402,-224,23,70,2024-01-24 15:26:55,0.0
3710,-100,-93,-121,-99,126,2024-01-24 15:26:55,0.0
4568,-90,-894,-138,-111,478,2024-01-24 15:26:55,0.0
6098,122,399,-475,789,-136,2024-01-24 15:26:55,0.0
5230,230,-2885,-534,-712,-298,2024-01-24 15:26:55,0.0
4047,-1170,-1116,-933,652,-258,2024-01-24 15:26:55,0.0
5795,211,-1392,-372,172,213,2024-01-24 15:26:55,0.0
3817,-236,-1051,-981,359,173,2024-01-24 15:26:55,0.0
3368,-589,-669,-1028,231,354,2024-01-24 15:26:55,0.0
3097,-525,-566,-1055,65,246,2024-01-24 15:26:55,0.0
3088,-557,80,-1160,89,33,2024-01-24 15:26:55,0.0
4615,-545,-230,-1054,50,-134,2024-01-24 15:26:56,0.0
4994,-1557,-404,-355,137,77,2024-01-24 15:26:56,0.0
5211,317,-972,-447,62,349,2024-01-24 15:26:56,0.0
4901,-530,-1975,-640,60,491,2024-01-24 15:26:56,0.0
3701,162,-1016,-434,261,112,2024-01-24 15:26:56,0.0
5467,33,-1118,-732,-104,-237,2024-01-24 15:26:56,0.0
2930,46,-329,-900,494,2,2024-01-24 15:26:56,0.0
3841,-541,-97,-614,-372,-36,2024-01-24 15:26:56,0.0
3895,319,-269,-442,247,35,2024-01-24 15:26:56,0.0
3959,-300,47,-307,17,306,2024-01-24 15:26:56,0.0
5205,583,-534,-645,328,139,2024-01-24 15:26:56,0.0
5510,-889,-2368,-1042,-1208,-54,2024-01-24 15:26:56,0.0
3080,-154,-834,-590,994,-268,2024-01-24 15:26:56,0.0
5353,-350,-533,-721,-810,463,2024-01-24 15:26:56,0.0
5814,-805,-1929,-763,614,250,2024-01-24 15:26:56,0.0
2683,-60,-237,-952,18,311,2024-01-24 15:26:56,0.0
3352,-320,-1047,-1343,-290,332,2024-01-24 15:26:56,0.0
2225,-182,-465,-1381,-82,323,2024-01-24 15:26:56,0.0
2476,2,-298,-1847,-122,60,2024-01-24 15:26:56,0.0
3781,-1365,-722,-1519,98,-69,2024-01-24 15:26:57,0.0
4480,-2321,-522,-320,97,-14,2024-01-24 15:26:57,0.0
4207,-885,-478,83,186,-84,2024-01-24 15:26:57,0.0
5059,72,-1237,-310,-459,-322,2024-01-24 15:26:57,0.0
6555,-179,-1214,1129,549,275,2024-01-24 15:26:57,0.0
5802,1157,-1538,-190,-184,-360,2024-01-24 15:26:57,0.0
3338,-433,-79,-121,334,129,2024-01-24 15:26:57,0.0
4217,-98,-323,3,-502,-322,2024-01-24 15:26:57,0.0
3232,268,-70,305,969,5,2024-01-24 15:26:57,0.0
1664,344,651,-361,-157,135,2024-01-24 15:26:57,0.0
4372,877,-1057,-368,179,279,2024-01-24 15:26:57,0.0
4675,-812,-1540,-944,2,165,2024-01-24 15:26:57,0.0
7861,-809,-813,-1102,194,-368,2024-01-24 15:26:57,
5887,-974,-831,-522,-588,564,2024-01-24 15:26:57,0.0
5704,-1187,-1027,-856,224,-133,2024-01-24 15:26:57,0.0
2763,14,30,-230,-95,612,2024-01-24 15:26:57,0.0
2886,-253,-410,-1009,33,-106,2024-01-24 15:26:57,0.0
2797,-439,111,-766,60,-20,2024-01-24 15:26:58,0.0
2702,-1164,-554,-513,111,-154,2024-01-24 15:26:58,0.0
3875,-1631,-496,154,-21,-61,2024-01-24 15:26:58,0.0
5014,-321,61,332,141,-187,2024-01-24 15:26:58,0.0
4487,-628,-1077,-184,-544,-192,2024-01-24 15:26:58,0.0
6467,-71,-1638,739,-146,124,2024-01-24 15:26:58,0.0
5922,549,-499,-34,158,-129,2024-01-24 15:26:58,0.0
5438,-241,-938,91,-14,40,2024-01-24 15:26:58,0.0
3162,-211,-267,297,26,-163,2024-01-24 15:26:58,0.0
2027,437,-341,-47,-211,-97,2024-01-24 15:26:58,0.0
3421,-6,-11,25,74,14,2024-01-24 15:26:58,0.0
3107,54,-69,165,460,303,2024-01-24 15:26:58,0.0
3798,640,-77,-541,160,463,2024-01-24 15:26:58,0.0
4769,-437,267,-762,215,-52,2024-01-24 15:26:58,0.0
5577,-889,-1871,-289,-633,235,2024-01-24 15:26:59,0.0
5366,-497,-911,-601,408,-427,2024-01-24 15:26:59,0.0
7200,-1327,-539,50,-110,279,2024-01-24 15:26:59,0.0
4616,-164,-543,-162,486,28,2024-01-24 15:26:59,0.0
3195,-383,-379,-362,-468,337,2024-01-24 15:26:59,0.0
2824,-759,-830,-560,-177,183,2024-01-24 15:26:59,0.0
2638,76,23,-912,-70,-63,2024-01-24 15:26:59,0.0
3232,-636,-155,-1213,292,-276,2024-01-24 15:26:59,0.0
4352,-1547,103,-327,264,-178,2024-01-24 15:26:59,0.0
5313,-1132,-112,294,198,-169,2024-01-24 15:26:59,0.0
4917,-125,-903,-342,-637,-175,2024-01-24 15:26:59,0.0
6893,173,-863,529,553,186,2024-01-24 15:26:59,0.0
6394,179,-341,161,-47,10,2024-01-24 15:26:59,0.0
4421,-212,-221,189,452,-95,2024-01-24 15:26:59,0.0
3264,315,-60,177,-405,-68,2024-01-24 15:26:59,0.0
2694,576,-225,12,-260,-41,2024-01-24 15:26:59,0.0
2803,-93,-13,-51,-179,266,2024-01-24 15:26:59,0.0
3700,368,104,-42,279,222,2024-01-24 15:26:59,0.0
3356,464,-403,-441,190,474,2024-01-24 15:26:59,0.0
4277,-215,-63,-1114,-409,-33,2024-01-24 15:26:59,0.0
6573,-719,-1382,-856,-459,-12,2024-01-24 15:26:59,0.0
4342,-1120,-432,-543,178,-135,2024-01-24 15:27:00,0.0
7693,-1015,-1369,-116,-276,14,2024-01-24 15:27:00,0.0
4370,-150,-245,-214,304,272,2024-01-24 15:27:00,0.0
4490,-972,-817,-643,-466,175,2024-01-24 15:27:00,0.0
3137,-498,-403,-407,-61,228,2024-01-24 15:27:00,0.0
2749,-105,-224,-726,-150,-90,2024-01-24 15:27:00,0.0
2828,-280,205,-776,241,-140,2024-01-24 15:27:00,0.0
2511,-780,79,-650,-39,-172,2024-01-24 15:27:00,0.0
4542,-1610,-736,-35,-212,-27,2024-01-24 15:27:00,0.0
4516,-615,189,208,433,-159,2024-01-24 15:27:00,0.0
6884,236,-1127,-207,-734,-59,2024-01-24 15:27:00,0.0
7080,820,-794,284,643,6,2024-01-24 15:27:00,0.0
5101,111,-950,-381,212,-152,2024-01-24 15:27:00,0.0
2778,-331,135,-187,16,-129,2024-01-24 15:27:00,0.0
3649,943,-613,-209,-337,-222,2024-01-24 15:27:00,0.0
3342,170,-713,-288,-104,202,2024-01-24 15:27:00,0.0
2208,-400,263,-193,288,121,2024-01-24 15:27:00,0.0
3501,609,254,-393,75,317,2024-01-24 15:27:00,0.0
4202,209,-345,-606,356,473,2024-01-24 15:27:01,0.0
4219,-1162,364,-710,-56,66,2024-01-24 15:27:01,0.0
6090,-457,-2232,-174,-688,199,2024-01-24 15:27:01,0.0
5577,-1562,-490,-311,341,-217,2024-01-24 15:27:01,0.0
7190,-37,-1067,179,-589,200,2024-01-24 15:27:01,0.0
4134,-535,-639,-476,518,143,2024-01-24 15:27:01,0.0
2828,-539,97,-14,-536,342,2024-01-24 15:27:01,0.0
3501,-486,-806,-618,-141,33,2024-01-24 15:27:01,0.0
2496,351,129,-744,-22,-47,2024-01-24 15:27:01,0.0
2865,-1047,9,-922,287,-103,2024-01-24 15:27:01,0.0
4248,-883,39,-493,186,-477,2024-01-24 15:27:01,0.0
4439,-1249,-5,112,347,-3,2024-01-24 15:27:01,0.0
3976,-756,-555,-19,-297,-242,2024-01-24 15:27:01,0.0
7201,-349,-965,714,0,386,2024-01-24 15:27:01,0.0
6036,921,-131,-180,163,-54,2024-01-24 15:27:01,0.0
5891,-803,-315,165,113,155,2024-01-24 15:27:01,0.0
4086,279,-81,100,-106,-210,2024-01-24 15:27:01,0.0
2682,375,-215,-39,-185,-108,2024-01-24 15:27:02,0.0
2346,-222,157,115,-137,-73,2024-01-24 15:27:02,0.0
2782,227,26,284,38,239,2024-01-24 15:27:02,0.0
3194,844,-112,-188,143,378,2024-01-24 15:27:02,0.0
4879,205,39,-829,208,82,2024-01-24 15:27:02,0.0
4910,-845,-157,-257,-3,-115,2024-01-24 15:27:02,0.0
6028,-557,-947,-615,50,-207,2024-01-24 15:27:02,0.0
7936,-1227,-653,-71,-56,153,2024-01-24 15:27:02,0.0
5698,-102,-835,-398,73,102,2024-01-24 15:27:02,0.0
4047,-843,-259,-680,-223,382,2024-01-24 15:27:02,0.0
2345,-360,-367,-700,-116,82,2024-01-24 15:27:02,0.0
1966,-74,-790,-1057,397,-27,2024-01-24 15:27:02,0.0
1569,-875,392,-1273,281,-198,2024-01-24 15:27:02,0.0
4207,-535,702,-490,-45,-189,2024-01-24 15:27:03,0.0
6051,-1866,-694,-128,-112,123,2024-01-24 15:27:03,0.0
5833,239,-737,94,-547,-187,2024-01-24 15:27:03,0.0
7380,-108,-1248,589,433,258,2024-01-24 15:27:03,0.0
6145,378,-78,-139,36,-320,2024-01-24 15:27:03,0.0
4529,-456,-394,165,314,76,2024-01-24 15:27:03,0.0
3894,458,-544,109,-328,-212,2024-01-24 15:27:03,0.0
2442,135,-50,47,190,60,2024-01-24 15:27:03,0.0
2376,52,381,-190,-96,16,2024-01-24 15:27:03,0.0
3802,880,-54,-68,200,329,2024-01-24 15:27:03,0.0
3251,-186,283,-687,516,352,2024-01-24 15:27:03,0.0
4982,-178,82,-825,-226,-44,2024-01-24 15:27:03,0.0
6775,-53,-1128,-754,126,-45,2024-01-24 15:27:03,
5491,-1553,-556,-542,-459,-40,2024-01-24 15:27:03,0.0
6489,-296,-596,-415,199,72,2024-01-24 15:27:03,0.0
4755,-747,-117,-540,-228,232,2024-01-24 15:27:03,0.0
3753,-833,-281,-467,-129,86,2024-01-24 15:27:03,0.0
2615,-184,-163,-526,-274,0,2024-01-24 15:27:03,0.0
2646,-183,-117,-695,-19,-107,2024-01-24 15:27:03,0.0
2792,-668,235,-721,115,-290,2024-01-24 15:27:03,0.0
4278,-896,-18,-293,65,-484,2024-01-24 15:27:03,0.0
5101,-1296,152,245,181,-47,2024-01-24 15:27:03,0.0
4104,55,-658,-329,-278,-138,2024-01-24 15:27:04,0.0
7445,-1188,-740,501,-114,554,2024-01-24 15:27:04,0.0
5430,1333,-95,227,258,-422,2024-01-24 15:27:04,0.0
5542,-1,-416,42,268,286,2024-01-24 15:27:04,0.0
3448,195,106,-196,170,-107,2024-01-24 15:27:04,0.0
2451,505,-101,-281,34,-130,2024-01-24 15:27:04,0.0
2857,-103,216,-208,-43,88,2024-01-24 15:27:04,0.0
3312,-93,663,-68,332,265,2024-01-24 15:27:04,0.0
3488,218,356,-109,385,216,2024-01-24 15:27:04,0.0
4397,694,905,-419,126,-76,2024-01-24 15:27:04,0.0
6147,-677,-313,-557,-126,-141,2024-01-24 15:27:04,0.0
4846,-573,-932,-712,-4,-160,2024-01-24 15:27:04,0.0
6871,-1256,68,-385,-240,174,2024-01-24 15:27:04,0.0
5157,-608,-44,-193,359,188,2024-01-24 15:27:04,0.0
3740,-153,30,-478,-289,131,2024-01-24 15:27:04,0.0
2770,-518,-313,-533,-287,195,2024-01-24 15:27:04,0.0
2346,-265,281,-731,-243,-38,2024-01-24 15:27:04,0.0
3145,-625,-51,-717,-19,-200,2024-01-24 15:27:04,0.0
3853,-1238,758,-590,279,-480,2024-01-24 15:27:05,0.0
4533,-1409,175,444,-252,69,2024-01-24 15:27:05,0.0
4676,-382,2,251,-204,-217,2024-01-24 15:27:05,0.0
7285,-427,-451,748,-331,321,2024-01-24 15:27:05,0.0
5319,713,-110,580,323,-308,2024-01-24 15:27:05,0.0
6100,-152,-1242,716,-967,220,2024-01-24 15:27:05,0.0
3381,642,0,329,365,-257,2024-01-24 15:27:05,0.0
3316,539,-115,-66,-430,167,2024-01-24 15:27:05,0.0
2683,-385,68,293,367,346,2024-01-24 15:27:05,0.0
2668,254,238,86,40,233,2024-01-24 15:27:05,0.0
4247,950,-378,-234,223,370,2024-01-24 15:27:05,0.0
3803,257,660,-1074,519,-245,2024-01-24 15:27:05,0.0
5469,-779,-1870,-959,-1081,-141,2024-01-24 15:27:05,0.0
6718,-2252,-350,-172,635,-249,2024-01-24 15:27:05,0.0
7197,569,-507,-286,-519,81,2024-01-24 15:27:05,0.0
4362,-488,-665,-868,140,248,2024-01-24 15:27:05,0.0
2899,-647,-357,-776,-437,210,2024-01-24 15:27:05,0.0
2264,-167,-18,-1074,-50,61,2024-01-24 15:27:06,0.0
3012,-430,-6,-950,299,-55,2024-01-24 15:27:06,0.0
3103,-1177,113,-839,196,-225,2024-01-24 15:27:06,0.0
4445,-2137,-440,420,-155,291,2024-01-24 15:27:06,0.0
7518,758,-853,163,-441,-206,2024-01-24 15:27:06,0.0
6866,-181,-1105,885,603,222,2024-01-24 15:27:06,0.0
4661,282,-180,24,-472,-96,2024-01-24 15:27:06,0.0
4904,13,-975,367,63,136,2024-01-24 15:27:06,0.0
1808,100,179,-163,-220,-233,2024-01-24 15:27:06,0.0
3356,424,-334,16,-460,110,2024-01-24 15:27:06,0.0
3183,310,66,-262,276,20,2024-01-24 15:27:06,0.0
2738,912,-143,-681,166,288,2024-01-24 15:27:06,0.0
3706,553,-359,-1501,220,179,2024-01-24 15:27:06,0.0
6057,-1253,170,-976,337,339,2024-01-24 15:27:06,0.0
6949,-1364,-1279,-1108,378,-101,2024-01-24 15:27:06,0.0
7333,-910,-353,1,-77,63,2024-01-24 15:27:06,0.0
4725,620,-611,-1166,129,-181,2024-01-24 15:27:06,0.0
3112,-987,125,-507,-193,539,2024-01-24 15:27:07,0.0
2864,-139,-603,-1068,-204,-48,2024-01-24 15:27:07,0.0
2456,-702,-207,-895,58,224,2024-01-24 15:27:07,0.0
2614,-1102,19,-788,-37,-120,2024-01-24 15:27:07,0.0
4418,-1070,106,-569,-139,-303,2024-01-24 15:27:07,0.0
5155,-960,81,232,208,29,2024-01-24 15:27:07,0.0
6420,-931,-1313,256,-559,-30,2024-01-24 15:27:07,0.0
5342,1513,-601,97,570,-99,2024-01-24 15:27:07,0.0
6709,-787,-842,-176,-91,6,2024-01-24 15:27:07,0.0
3500,-13,-183,-66,113,-328,2024-01-24 15:27:07,0.0
2704,119,-147,-155,-485,-169,2024-01-24 15:27:07,0.0
3189,-79,-90,316,161,76,2024-01-24 15:27:07,0.0
2831,376,147,161,234,295,2024-01-24 15:27:07,0.0
3734,939,-285,-398,222,293,2024-01-24 15:27:07,0.0
5198,191,-165,-948,-210,-137,2024-01-24 15:27:07,0.0
6329,-569,-1469,-496,-210,-179,2024-01-24 15:27:07,0.0
5872,-1484,-1249,-581,-615,145,2024-01-24 15:27:07,0.0
6286,-446,-902,-841,-74,43,2024-01-24 15:27:07,0.0
3178,-235,-762,-677,-47,333,2024-01-24 15:27:08,0.0
3051,-1070,-705,-1046,-349,54,2024-01-24 15:27:08,0.0
2232,167,-376,-940,417,86,2024-01-24 15:27:08,0.0
2063,-982,-98,-967,29,38,2024-01-24 15:27:08,0.0
5920,-2944,-651,-2,72,-160,2024-01-24 15:27:08,0.0
3860,-321,-308,704,636,-49,2024-01-24 15:27:08,0.0
5104,-119,-592,-8,-485,-212,2024-01-24 15:27:08,0.0
7236,-329,-1165,1154,712,87,2024-01-24 15:27:08,0.0
4206,1145,-83,-65,-283,-136,2024-01-24 15:27:08,0.0
5814,-107,-1331,442,2,139,2024-01-24 15:27:08,0.0
2423,-24,542,106,61,-150,2024-01-24 15:27:08,0.0
2464,920,-255,-61,-410,-107,2024-01-24 15:27:08,0.0
3349,688,-146,-360,187,51,2024-01-24 15:27:08,0.0
4640,38,-102,-514,217,313,2024-01-24 15:27:08,0.0
4590,540,300,-1070,423,-104,2024-01-24 15:27:08,0.0
4771,-1005,1103,-686,438,82,2024-01-24 15:27:08,0.0
5785,-174,-1769,-903,-897,-361,2024-01-24 15:27:08,0.0
7455,-1469,-1890,180,538,202,2024-01-24 15:27:08,0.0
4117,241,-342,-243,23,-56,2024-01-24 15:27:09,0.0
4909,-360,-892,-431,-273,477,2024-01-24 15:27:09,0.0
2731,-367,-331,-572,-90,237,2024-01-24 15:27:09,
