acceleration_x,acceleration_y,acceleration_z,gyroscope_x,gyroscope_y,gyroscope_z,timestamp,label
4318,-566,-427,-88,-16,34,2024-01-24 14:31:04,0.0
4311,-538,-397,-76,-26,42,2024-01-24 14:31:04,0.0
4294,-565,-402,-82,-32,48,2024-01-24 14:31:04,0.0
4381,-511,-362,-86,-19,34,2024-01-24 14:31:04,0.0
4267,-555,-447,-99,-24,48,2024-01-24 14:31:04,0.0
4298,-567,-426,-91,-22,32,2024-01-24 14:31:04,0.0
4296,-551,-448,-82,-19,37,2024-01-24 14:31:04,0.0
4271,-558,-468,-85,-16,27,2024-01-24 14:31:04,0.0
4255,-553,-482,-89,-30,18,2024-01-24 14:31:04,0.0
4304,-531,-478,-74,-19,8,2024-01-24 14:31:04,0.0
4287,-524,-460,-63,-21,2,2024-01-24 14:31:05,0.0
4255,-517,-461,-54,-11,-16,2024-01-24 14:31:05,0.0
4314,-515,-519,-35,-73,-14,2024-01-24 14:31:05,0.0
4331,-465,-484,-39,-37,-43,2024-01-24 14:31:05,0.0
4283,-481,-461,-74,-43,-24,2024-01-24 14:31:05,0.0
4306,-471,-458,-65,-49,-35,2024-01-24 14:31:05,0.0
4311,-553,-497,-70,-28,-30,2024-01-24 14:31:05,0.0
4290,-488,-388,-56,-84,-30,2024-01-24 14:31:05,0.0
4270,-525,-468,-64,-71,-17,2024-01-24 14:31:05,0.0
4380,-507,-455,-80,-32,-30,2024-01-24 14:31:05,0.0
4256,-527,-396,-77,-52,-9,2024-01-24 14:31:05,0.0
4342,-549,-466,-63,-53,-14,2024-01-24 14:31:05,0.0
4269,-558,-477,-49,-45,-12,2024-01-24 14:31:05,0.0
4339,-516,-457,-51,-47,-24,2024-01-24 14:31:05,0.0
4266,-567,-469,-52,-34,-18,2024-01-24 14:31:05,0.0
4319,-528,-475,-54,-38,-9,2024-01-24 14:31:05,0.0
4224,-557,-445,-47,13,7,2024-01-24 14:31:05,0.0
4343,-514,-459,-60,-43,19,2024-01-24 14:31:06,0.0
4320,-568,-424,-88,-20,14,2024-01-24 14:31:06,0.0
4298,-558,-427,-73,-27,18,2024-01-24 14:31:06,0.0
4329,-574,-428,-72,-30,22,2024-01-24 14:31:06,0.0
4241,-558,-454,-66,-16,13,2024-01-24 14:31:06,0.0
4344,-518,-491,-96,-47,15,2024-01-24 14:31:06,0.0
4288,-482,-451,-146,-13,18,2024-01-24 14:31:06,0.0
4320,-495,-500,-225,-49,24,2024-01-24 14:31:06,0.0
4324,-600,-511,-230,-43,25,2024-01-24 14:31:06,0.0
4344,-456,-517,-303,-26,8,2024-01-24 14:31:06,0.0
4288,-493,-459,-341,-36,35,2024-01-24 14:31:06,0.0
4309,-558,-508,-341,-33,42,2024-01-24 14:31:06,0.0
4295,-517,-519,-355,-32,37,2024-01-24 14:31:06,0.0
4265,-544,-492,-351,-50,50,2024-01-24 14:31:06,0.0
4361,-535,-547,-364,-17,41,2024-01-24 14:31:06,0.0
4292,-532,-513,-335,-22,57,2024-01-24 14:31:06,0.0
4260,-515,-577,-344,22,47,2024-01-24 14:31:06,0.0
4303,-450,-556,-363,-10,60,2024-01-24 14:31:06,0.0
4325,-524,-600,-367,5,64,2024-01-24 14:31:07,0.0
4272,-490,-582,-328,18,52,2024-01-24 14:31:07,0.0
4337,-375,-576,-316,-16,56,2024-01-24 14:31:07,0.0
4298,-450,-589,-288,-7,24,2024-01-24 14:31:07,0.0
4334,-370,-598,-262,-57,33,2024-01-24 14:31:07,0.0
4238,-351,-569,-221,-86,1,2024-01-24 14:31:07,0.0
4246,-341,-544,-104,-119,69,2024-01-24 14:31:07,0.0
4481,-497,-677,-36,-2,-14,2024-01-24 14:31:07,0.0
4139,-306,-492,41,-95,8,2024-01-24 14:31:07,0.0
4473,-468,-700,76,-45,-59,2024-01-24 14:31:07,0.0
4120,-227,-618,52,-80,-34,2024-01-24 14:31:07,0.0
4330,-484,-689,42,-80,-23,2024-01-24 14:31:07,0.0
4287,-454,-663,49,-12,-21,2024-01-24 14:31:07,0.0
4361,-457,-678,86,-51,-4,2024-01-24 14:31:07,0.0
4200,-349,-669,11,9,-19,2024-01-24 14:31:07,0.0
4336,-494,-633,40,12,17,2024-01-24 14:31:07,0.0
4290,-350,-645,-28,31,-27,2024-01-24 14:31:07,0.0
4308,-490,-580,-3,3,17,2024-01-24 14:31:08,0.0
4269,-340,-553,-40,22,-23,2024-01-24 14:31:08,0.0
4272,-444,-632,-32,12,14,2024-01-24 14:31:08,0.0
4314,-439,-517,-41,-34,3,2024-01-24 14:31:08,0.0
4287,-464,-574,-40,-36,2,2024-01-24 14:31:08,0.0
4327,-463,-534,-38,-28,22,2024-01-24 14:31:08,0.0
4287,-410,-617,-31,-34,10,2024-01-24 14:31:08,0.0
4243,-466,-573,-24,-37,12,2024-01-24 14:31:08,0.0
4310,-417,-589,-15,-26,4,2024-01-24 14:31:08,0.0
4283,-414,-611,-15,-10,-2,2024-01-24 14:31:08,0.0
4314,-375,-563,-12,-17,6,2024-01-24 14:31:08,0.0
4304,-426,-584,-10,-21,-2,2024-01-24 14:31:08,0.0
4307,-416,-581,2,-24,5,2024-01-24 14:31:08,0.0
4280,-402,-549,-4,-19,-1,2024-01-24 14:31:08,0.0
4335,-444,-603,0,-31,4,2024-01-24 14:31:08,0.0
4297,-408,-558,-6,-34,8,2024-01-24 14:31:08,0.0
4326,-394,-543,-20,-16,6,2024-01-24 14:31:08,0.0
4301,-424,-553,-28,-18,2,2024-01-24 14:31:08,0.0
4300,-381,-551,-23,-20,19,2024-01-24 14:31:09,0.0
4287,-450,-586,-28,-17,7,2024-01-24 14:31:09,0.0
4299,-369,-566,-28,-20,11,2024-01-24 14:31:09,0.0
4322,-410,-520,-38,-31,10,2024-01-24 14:31:09,0.0
4254,-412,-576,-43,-35,7,2024-01-24 14:31:09,0.0
4317,-452,-532,-37,-50,21,2024-01-24 14:31:09,0.0
4298,-408,-564,-51,-33,6,2024-01-24 14:31:09,0.0
4273,-432,-529,-39,-39,15,2024-01-24 14:31:09,0.0
4321,-435,-550,-32,-31,12,2024-01-24 14:31:09,0.0
4298,-424,-539,-35,-43,9,2024-01-24 14:31:09,0.0
4308,-443,-564,-36,-32,10,2024-01-24 14:31:09,0.0
4292,-396,-530,-31,-42,0,2024-01-24 14:31:09,0.0
4305,-430,-528,-27,-41,21,2024-01-24 14:31:09,0.0
4270,-436,-587,-31,-51,7,2024-01-24 14:31:09,0.0
4297,-418,-557,-26,-36,17,2024-01-24 14:31:09,0.0
4258,-407,-558,-27,-61,9,2024-01-24 14:31:09,0.0
4311,-417,-582,-21,-56,18,2024-01-24 14:31:09,0.0
4276,-442,-579,-23,-49,7,2024-01-24 14:31:10,0.0
4305,-438,-600,-5,-50,16,2024-01-24 14:31:10,0.0
4289,-408,-583,-12,-39,4,2024-01-24 14:31:10,
4300,-448,-592,3,-52,15,2024-01-24 14:31:10,0.0
4300,-408,-578,-6,-35,5,2024-01-24 14:31:10,0.0
4303,-406,-561,-14,-52,11,2024-01-24 14:31:10,0.0
4280,-413,-625,-25,-23,-2,2024-01-24 14:31:10,0.0
4302,-445,-602,-16,-26,-1,2024-01-24 14:31:10,0.0
4310,-456,-638,-30,-34,4,2024-01-24 14:31:10,0.0
4292,-449,-617,-40,-27,-1,2024-01-24 14:31:10,0.0
4276,-438,-573,-37,-27,6,2024-01-24 14:31:10,0.0
4309,-448,-610,-43,-18,4,2024-01-24 14:31:10,0.0
4296,-454,-599,-47,-13,15,2024-01-24 14:31:10,0.0
4291,-459,-595,-44,-14,12,2024-01-24 14:31:10,0.0
4307,-484,-605,-50,-18,15,2024-01-24 14:31:10,0.0
4279,-485,-552,-51,-16,15,2024-01-24 14:31:10,0.0
4295,-495,-589,-41,-18,24,2024-01-24 14:31:10,0.0
4305,-470,-663,-43,-20,19,2024-01-24 14:31:10,0.0
4254,-484,-608,-49,-7,25,2024-01-24 14:31:11,0.0
4305,-462,-556,-55,-25,30,2024-01-24 14:31:11,0.0
4328,-490,-550,-75,2,23,2024-01-24 14:31:11,0.0
4250,-446,-539,-47,-18,26,2024-01-24 14:31:11,0.0
4330,-508,-578,-48,-17,40,2024-01-24 14:31:11,0.0
4306,-448,-546,-53,-4,27,2024-01-24 14:31:11,0.0
4269,-449,-544,-48,-11,31,2024-01-24 14:31:11,0.0
4304,-443,-597,-35,-5,23,2024-01-24 14:31:11,0.0
4306,-440,-569,-25,-4,11,2024-01-24 14:31:11,0.0
4330,-421,-563,-22,11,3,2024-01-24 14:31:11,0.0
4311,-383,-543,-13,23,-2,2024-01-24 14:31:11,0.0
4454,-445,-576,38,41,-9,2024-01-24 14:31:11,0.0
4267,-299,-470,48,27,-37,2024-01-24 14:31:11,0.0
4390,-393,-454,77,35,-30,2024-01-24 14:31:11,0.0
4202,-282,-514,28,-8,-27,2024-01-24 14:31:11,0.0
4382,-474,-512,44,-33,-8,2024-01-24 14:31:11,0.0
4227,-350,-474,36,-31,-24,2024-01-24 14:31:11,0.0
4364,-448,-448,56,-45,-18,2024-01-24 14:31:12,0.0
4307,-357,-471,37,-34,-29,2024-01-24 14:31:12,0.0
4287,-394,-513,10,-56,-20,2024-01-24 14:31:12,0.0
4347,-435,-471,15,-46,-23,2024-01-24 14:31:12,0.0
4322,-439,-422,27,-50,-33,2024-01-24 14:31:12,0.0
4300,-375,-466,44,-51,-29,2024-01-24 14:31:12,0.0
4357,-417,-432,50,-9,-31,2024-01-24 14:31:12,0.0
4288,-397,-438,50,-14,-45,2024-01-24 14:31:12,0.0
4292,-408,-412,70,-2,-29,2024-01-24 14:31:12,0.0
4332,-409,-413,92,4,-32,2024-01-24 14:31:12,0.0
4264,-377,-391,100,-47,-25,2024-01-24 14:31:12,0.0
4344,-445,-494,115,-34,-20,2024-01-24 14:31:12,0.0
4302,-344,-416,96,-27,-25,2024-01-24 14:31:12,0.0
4324,-415,-445,113,-36,-17,2024-01-24 14:31:12,0.0
4278,-421,-428,118,-44,-13,2024-01-24 14:31:12,0.0
4317,-415,-445,123,-54,-5,2024-01-24 14:31:12,0.0
4271,-424,-446,129,-36,1,2024-01-24 14:31:12,0.0
4318,-396,-472,112,-31,2,2024-01-24 14:31:12,0.0
4333,-456,-428,94,-22,14,2024-01-24 14:31:13,0.0
4325,-433,-439,88,-33,13,2024-01-24 14:31:13,0.0
4307,-434,-477,86,-24,23,2024-01-24 14:31:13,0.0
4287,-446,-453,64,-31,29,2024-01-24 14:31:13,0.0
4329,-429,-426,41,-9,33,2024-01-24 14:31:13,0.0
4296,-408,-410,8,-15,30,2024-01-24 14:31:13,0.0
4334,-438,-402,-3,-18,39,2024-01-24 14:31:13,0.0
4273,-455,-477,-28,-11,39,2024-01-24 14:31:13,0.0
4320,-398,-421,-51,-27,61,2024-01-24 14:31:13,0.0
4311,-477,-501,-97,5,46,2024-01-24 14:31:13,0.0
4305,-413,-455,-106,-33,54,2024-01-24 14:31:13,0.0
4342,-456,-405,-110,-18,72,2024-01-24 14:31:13,0.0
4289,-423,-449,-153,-12,49,2024-01-24 14:31:13,0.0
4296,-469,-459,-165,-36,64,2024-01-24 14:31:13,0.0
4310,-429,-424,-193,-13,54,2024-01-24 14:31:13,0.0
4267,-424,-424,-211,-33,65,2024-01-24 14:31:13,0.0
4331,-495,-440,-205,-29,58,2024-01-24 14:31:13,0.0
4261,-434,-486,-210,-49,64,2024-01-24 14:31:14,0.0
4317,-469,-478,-206,-53,67,2024-01-24 14:31:14,0.0
4317,-425,-458,-201,-34,50,2024-01-24 14:31:14,0.0
4283,-460,-483,-190,-60,48,2024-01-24 14:31:14,0.0
4311,-420,-489,-147,-59,35,2024-01-24 14:31:14,0.0
4335,-471,-489,-128,-66,34,2024-01-24 14:31:14,0.0
4307,-475,-492,-98,-56,12,2024-01-24 14:31:14,0.0
4344,-473,-503,-53,-40,10,2024-01-24 14:31:14,0.0
4300,-465,-511,-42,-23,-5,2024-01-24 14:31:14,0.0
4357,-468,-494,-12,-18,-12,2024-01-24 14:31:14,0.0
4285,-503,-487,2,-26,-15,2024-01-24 14:31:14,0.0
4334,-490,-527,19,-4,-29,2024-01-24 14:31:14,0.0
4261,-446,-474,18,-20,-24,2024-01-24 14:31:14,0.0
4350,-478,-482,31,-2,-29,2024-01-24 14:31:14,0.0
4242,-486,-467,36,-17,-23,2024-01-24 14:31:14,0.0
4327,-489,-522,53,-26,-24,2024-01-24 14:31:14,0.0
4299,-470,-481,55,-21,-25,2024-01-24 14:31:14,0.0
4297,-475,-496,51,-18,-32,2024-01-24 14:31:14,0.0
4278,-517,-476,74,-25,-18,2024-01-24 14:31:15,0.0
4327,-476,-530,61,-12,-20,2024-01-24 14:31:15,0.0
4254,-503,-395,56,-23,-19,2024-01-24 14:31:15,0.0
4322,-449,-446,56,-29,-8,2024-01-24 14:31:15,0.0
4309,-494,-478,46,-24,-8,2024-01-24 14:31:15,0.0
4286,-551,-402,50,-22,1,2024-01-24 14:31:15,0.0
4357,-491,-464,31,-30,-3,2024-01-24 14:31:15,0.0
4278,-505,-413,27,-26,8,2024-01-24 14:31:15,0.0
4353,-483,-459,16,-40,13,2024-01-24 14:31:15,0.0
4277,-509,-463,-9,-36,12,2024-01-24 14:31:15,0.0
4294,-513,-484,-19,-36,14,2024-01-24 14:31:15,0.0
4304,-480,-427,-31,-50,24,2024-01-24 14:31:15,0.0
4297,-527,-429,-44,-30,22,2024-01-24 14:31:15,0.0
4307,-495,-456,-62,-35,27,2024-01-24 14:31:15,0.0
4253,-511,-473,-65,-42,26,2024-01-24 14:31:15,
4300,-500,-465,-85,-21,32,2024-01-24 14:31:15,0.0
4298,-499,-441,-106,-20,28,2024-01-24 14:31:15,0.0
4284,-495,-496,-101,-48,43,2024-01-24 14:31:16,0.0
4356,-475,-484,-114,-28,37,2024-01-24 14:31:16,0.0
4277,-497,-421,-112,-43,40,2024-01-24 14:31:16,0.0
4330,-526,-523,-114,-37,39,2024-01-24 14:31:16,0.0
4332,-488,-464,-107,-22,33,2024-01-24 14:31:16,0.0
4290,-476,-534,-120,-28,24,2024-01-24 14:31:16,0.0
4342,-493,-481,-114,-45,31,2024-01-24 14:31:16,0.0
4283,-486,-501,-95,-23,27,2024-01-24 14:31:16,0.0
4321,-451,-510,-83,-50,19,2024-01-24 14:31:16,0.0
4309,-465,-476,-63,-40,11,2024-01-24 14:31:16,0.0
4333,-434,-563,-54,-31,3,2024-01-24 14:31:16,0.0
4290,-455,-510,-39,-17,-2,2024-01-24 14:31:16,0.0
4315,-443,-535,-2,-20,-6,2024-01-24 14:31:16,0.0
4309,-424,-512,-6,-18,-9,2024-01-24 14:31:16,0.0
4300,-442,-516,25,-28,-8,2024-01-24 14:31:16,0.0
4329,-404,-492,43,-14,-17,2024-01-24 14:31:16,0.0
4249,-394,-500,45,-42,-1,2024-01-24 14:31:16,0.0
4371,-480,-508,45,-64,-17,2024-01-24 14:31:16,0.0
4276,-427,-510,45,-41,-29,2024-01-24 14:31:17,0.0
4349,-469,-509,72,-65,-34,2024-01-24 14:31:17,0.0
4300,-444,-513,69,-53,-34,2024-01-24 14:31:17,0.0
4330,-498,-519,86,-46,-36,2024-01-24 14:31:17,0.0
4324,-433,-530,95,-10,-40,2024-01-24 14:31:17,0.0
4286,-479,-502,113,-17,-29,2024-01-24 14:31:17,0.0
4287,-436,-479,99,-48,-22,2024-01-24 14:31:17,0.0
4252,-439,-451,112,-75,-5,2024-01-24 14:31:17,0.0
4311,-481,-499,103,-66,-9,2024-01-24 14:31:17,0.0
4319,-522,-475,105,-24,-7,2024-01-24 14:31:17,0.0
4310,-489,-478,136,-10,-12,2024-01-24 14:31:17,0.0
4305,-493,-495,138,-5,-6,2024-01-24 14:31:17,0.0
4291,-446,-486,116,-42,3,2024-01-24 14:31:17,0.0
4311,-479,-418,90,-47,-1,2024-01-24 14:31:17,0.0
4337,-489,-475,82,-43,4,2024-01-24 14:31:17,0.0
4344,-510,-516,86,-26,7,2024-01-24 14:31:17,0.0
4259,-484,-455,84,23,-2,2024-01-24 14:31:17,0.0
4318,-473,-436,65,-8,11,2024-01-24 14:31:18,0.0
4286,-478,-375,27,1,11,2024-01-24 14:31:18,0.0
4337,-465,-448,-1,-48,18,2024-01-24 14:31:18,0.0
4335,-507,-474,-9,-6,21,2024-01-24 14:31:18,0.0
4377,-489,-511,-28,8,20,2024-01-24 14:31:18,0.0
4209,-519,-403,-63,23,40,2024-01-24 14:31:18,0.0
4357,-457,-462,-79,-4,41,2024-01-24 14:31:18,0.0
4280,-489,-364,-111,-22,49,2024-01-24 14:31:18,0.0
4300,-490,-465,-125,-18,44,2024-01-24 14:31:18,0.0
4317,-504,-397,-126,-5,58,2024-01-24 14:31:18,0.0
4290,-513,-382,-119,-15,52,2024-01-24 14:31:18,0.0
4291,-468,-400,-137,-16,49,2024-01-24 14:31:18,0.0
4313,-504,-402,-131,-23,48,2024-01-24 14:31:18,0.0
4302,-498,-421,-140,-18,39,2024-01-24 14:31:18,0.0
4308,-477,-425,-138,-34,37,2024-01-24 14:31:18,0.0
4300,-509,-448,-130,-19,39,2024-01-24 14:31:18,0.0
4293,-478,-433,-130,-30,29,2024-01-24 14:31:18,0.0
4283,-497,-425,-112,-24,27,2024-01-24 14:31:18,0.0
4311,-510,-430,-101,-30,14,2024-01-24 14:31:19,0.0
4304,-490,-408,-84,-34,8,2024-01-24 14:31:19,0.0
4290,-514,-483,-67,-35,6,2024-01-24 14:31:19,0.0
4282,-499,-452,-41,-11,-4,2024-01-24 14:31:19,0.0
4278,-508,-438,-45,-25,-9,2024-01-24 14:31:19,0.0
4336,-493,-446,-35,-18,-20,2024-01-24 14:31:19,0.0
4252,-513,-430,-11,0,-31,2024-01-24 14:31:19,0.0
4294,-495,-443,19,-103,-29,2024-01-24 14:31:19,0.0
4323,-449,-452,-17,-63,-71,2024-01-24 14:31:19,0.0
4307,-382,-421,-56,-88,-55,2024-01-24 14:31:19,0.0
4331,-361,-428,-106,-84,-59,2024-01-24 14:31:19,0.0
4245,-447,-513,-134,-40,-54,2024-01-24 14:31:19,0.0
4305,-384,-471,-154,-83,-47,2024-01-24 14:31:19,0.0
4316,-426,-517,-185,-18,-27,2024-01-24 14:31:19,0.0
4312,-458,-445,-181,-51,-22,2024-01-24 14:31:19,0.0
4330,-476,-497,-165,-17,-12,2024-01-24 14:31:19,0.0
4257,-507,-516,-121,9,-9,2024-01-24 14:31:19,0.0
4292,-483,-459,-118,-36,4,2024-01-24 14:31:20,0.0
4379,-449,-382,-135,-23,-5,2024-01-24 14:31:20,0.0
4303,-456,-484,-119,-19,5,2024-01-24 14:31:20,0.0
4307,-546,-454,-84,-16,-13,2024-01-24 14:31:20,0.0
4287,-432,-494,-55,11,3,2024-01-24 14:31:20,0.0
4350,-390,-470,-62,-11,15,2024-01-24 14:31:20,0.0
4317,-389,-405,-96,14,25,2024-01-24 14:31:20,0.0
4309,-441,-451,-91,-22,21,2024-01-24 14:31:20,0.0
4372,-448,-427,-94,58,8,2024-01-24 14:31:20,0.0
4299,-382,-400,-87,15,30,2024-01-24 14:31:20,0.0
4318,-365,-357,-102,33,51,2024-01-24 14:31:20,0.0
4419,-380,-458,-128,57,47,2024-01-24 14:31:20,0.0
4236,-410,-397,-137,71,52,2024-01-24 14:31:20,0.0
4327,-347,-349,-93,-11,63,2024-01-24 14:31:20,0.0
4323,-359,-388,-113,18,55,2024-01-24 14:31:20,0.0
4305,-374,-361,-87,-21,73,2024-01-24 14:31:20,0.0
4276,-367,-390,-97,-49,59,2024-01-24 14:31:20,0.0
4381,-383,-367,-64,-38,63,2024-01-24 14:31:20,0.0
4329,-328,-377,-74,-29,32,2024-01-24 14:31:21,0.0
4325,-353,-347,-42,-36,24,2024-01-24 14:31:21,0.0
4385,-379,-337,-20,-67,7,2024-01-24 14:31:21,0.0
4357,-336,-369,1,-61,-1,2024-01-24 14:31:21,0.0
4301,-382,-415,0,-51,-9,2024-01-24 14:31:21,0.0
4350,-327,-394,-6,-56,-8,2024-01-24 14:31:21,0.0
4335,-385,-401,9,-47,-6,2024-01-24 14:31:21,0.0
4299,-396,-385,16,-65,-28,2024-01-24 14:31:21,0.0
4350,-383,-422,37,-54,-24,2024-01-24 14:31:21,0.0
4298,-403,-383,29,-95,-31,2024-01-24 14:31:21,
4345,-359,-458,21,-56,-29,2024-01-24 14:31:21,0.0
4330,-374,-462,-5,-39,-21,2024-01-24 14:31:21,0.0
4357,-376,-459,-53,30,-37,2024-01-24 14:31:21,0.0
4283,-392,-392,-40,-32,-13,2024-01-24 14:31:21,0.0
4322,-423,-405,-57,1,-18,2024-01-24 14:31:21,0.0
4342,-414,-439,-65,-53,-3,2024-01-24 14:31:21,0.0
4287,-394,-413,-52,-7,0,2024-01-24 14:31:21,0.0
4319,-481,-422,-50,53,4,2024-01-24 14:31:22,0.0
4250,-547,-380,-8,13,4,2024-01-24 14:31:22,0.0
4362,-508,-348,37,-18,22,2024-01-24 14:31:22,0.0
4287,-548,-313,128,-58,23,2024-01-24 14:31:22,0.0
4379,-357,-409,66,-66,15,2024-01-24 14:31:22,0.0
4287,-516,-331,68,-12,23,2024-01-24 14:31:22,0.0
4375,-450,-390,89,-16,20,2024-01-24 14:31:22,0.0
4299,-454,-331,52,-24,14,2024-01-24 14:31:22,0.0
4282,-388,-311,23,-36,39,2024-01-24 14:31:22,0.0
4329,-487,-355,13,-57,51,2024-01-24 14:31:22,0.0
4250,-437,-394,26,-70,72,2024-01-24 14:31:22,0.0
4360,-478,-489,14,-137,87,2024-01-24 14:31:22,0.0
4283,-521,-433,-2,-62,52,2024-01-24 14:31:22,0.0
4348,-432,-467,-19,-59,46,2024-01-24 14:31:22,0.0
4396,-507,-501,-36,-17,37,2024-01-24 14:31:22,0.0
4275,-481,-312,-24,53,40,2024-01-24 14:31:22,0.0
4291,-518,-387,-17,34,62,2024-01-24 14:31:22,0.0
4373,-511,-407,-44,40,48,2024-01-24 14:31:22,0.0
4234,-461,-337,-82,6,42,2024-01-24 14:31:23,0.0
4368,-449,-410,-137,-19,26,2024-01-24 14:31:23,0.0
4255,-526,-394,-140,-16,30,2024-01-24 14:31:23,0.0
4360,-478,-375,-123,-38,15,2024-01-24 14:31:23,0.0
4303,-416,-364,-124,-9,10,2024-01-24 14:31:23,0.0
4307,-451,-373,-123,-16,7,2024-01-24 14:31:23,0.0
4379,-464,-427,-102,-4,-11,2024-01-24 14:31:23,0.0
4294,-395,-382,-102,-21,-12,2024-01-24 14:31:23,0.0
4333,-447,-351,-106,-46,-4,2024-01-24 14:31:23,0.0
4290,-437,-375,-98,-28,-19,2024-01-24 14:31:23,0.0
4348,-489,-365,-77,-41,-7,2024-01-24 14:31:23,0.0
4322,-441,-403,-76,-16,-27,2024-01-24 14:31:23,0.0
4341,-464,-351,-50,-34,-26,2024-01-24 14:31:23,0.0
4297,-435,-375,-44,-22,-29,2024-01-24 14:31:23,0.0
4307,-461,-450,-33,-25,-30,2024-01-24 14:31:23,0.0
4333,-383,-347,-27,-5,-36,2024-01-24 14:31:23,0.0
4301,-447,-359,-14,-42,-31,2024-01-24 14:31:23,0.0
4324,-408,-402,-17,-60,-32,2024-01-24 14:31:24,0.0
4289,-406,-347,-24,-54,-29,2024-01-24 14:31:24,0.0
4316,-423,-387,-14,-55,-38,2024-01-24 14:31:24,0.0
4326,-406,-425,-28,-47,-31,2024-01-24 14:31:24,0.0
4309,-405,-430,-21,-60,-21,2024-01-24 14:31:24,0.0
4322,-426,-422,0,-43,-17,2024-01-24 14:31:24,0.0
4334,-456,-385,3,-52,-17,2024-01-24 14:31:24,0.0
4309,-400,-348,6,-47,-8,2024-01-24 14:31:24,0.0
4354,-439,-468,-10,-28,18,2024-01-24 14:31:24,0.0
4294,-470,-371,13,-24,22,2024-01-24 14:31:24,0.0
4363,-451,-403,6,-36,16,2024-01-24 14:31:24,0.0
4280,-429,-364,39,-55,35,2024-01-24 14:31:24,0.0
4371,-437,-458,12,-79,29,2024-01-24 14:31:24,0.0
4301,-515,-429,9,-102,40,2024-01-24 14:31:24,0.0
4323,-462,-484,18,-145,54,2024-01-24 14:31:24,0.0
4300,-513,-492,19,-107,29,2024-01-24 14:31:24,0.0
4300,-447,-511,-4,-120,43,2024-01-24 14:31:24,0.0
4314,-471,-516,-12,-72,40,2024-01-24 14:31:24,0.0
4289,-444,-520,-31,-156,66,2024-01-24 14:31:25,0.0
4297,-528,-545,-40,-82,63,2024-01-24 14:31:25,0.0
4283,-439,-595,-55,-62,63,2024-01-24 14:31:25,0.0
4329,-490,-584,-49,-54,51,2024-01-24 14:31:25,0.0
4290,-469,-565,-64,-19,40,2024-01-24 14:31:25,0.0
4272,-500,-581,-59,-20,46,2024-01-24 14:31:25,0.0
4272,-557,-564,-59,-19,34,2024-01-24 14:31:25,0.0
4269,-461,-513,43,-7,58,2024-01-24 14:31:25,0.0
4335,-448,-720,20,42,31,2024-01-24 14:31:25,0.0
4363,-312,-570,-125,-57,10,2024-01-24 14:31:25,0.0
4300,-485,-717,-189,58,40,2024-01-24 14:31:25,0.0
4269,-424,-598,-257,9,9,2024-01-24 14:31:25,0.0
4400,-434,-658,-297,40,26,2024-01-24 14:31:25,0.0
4297,-422,-620,-325,103,-6,2024-01-24 14:31:25,0.0
4285,-360,-557,-251,94,56,2024-01-24 14:31:25,0.0
4297,-513,-387,-193,45,11,2024-01-24 14:31:25,0.0
4361,-380,-526,-250,-11,-42,2024-01-24 14:31:25,0.0
4285,-591,-446,-228,29,-39,2024-01-24 14:31:26,0.0
4273,-637,-318,15,49,-26,2024-01-24 14:31:26,0.0
4306,-676,-403,108,-63,-59,2024-01-24 14:31:26,0.0
4287,-502,-446,286,-54,-80,2024-01-24 14:31:26,0.0
4265,-350,-453,296,-46,-32,2024-01-24 14:31:26,0.0
4350,-293,-422,168,-78,-31,2024-01-24 14:31:26,0.0
4315,-336,-608,83,-52,-10,2024-01-24 14:31:26,0.0
4260,-344,-491,-3,-36,2,2024-01-24 14:31:26,0.0
4338,-481,-407,-22,-30,1,2024-01-24 14:31:26,0.0
4297,-519,-462,-9,-59,0,2024-01-24 14:31:26,0.0
4302,-568,-370,65,-108,7,2024-01-24 14:31:26,0.0
4361,-410,-425,68,-49,2,2024-01-24 14:31:26,0.0
4288,-442,-372,29,-8,28,2024-01-24 14:31:26,0.0
4310,-470,-470,-10,-75,13,2024-01-24 14:31:26,0.0
4250,-568,-466,5,-10,-9,2024-01-24 14:31:26,0.0
4311,-481,-389,34,-33,33,2024-01-24 14:31:26,0.0
4398,-382,-488,-14,-7,19,2024-01-24 14:31:26,0.0
4357,-362,-541,-71,135,-5,2024-01-24 14:31:26,0.0
4258,-433,-301,-205,79,10,2024-01-24 14:31:27,0.0
4265,-547,-388,-177,-24,27,2024-01-24 14:31:27,0.0
4271,-635,-311,-128,9,17,2024-01-24 14:31:27,0.0
4377,-607,-281,-9,-9,37,2024-01-24 14:31:27,0.0
4314,-491,-409,-7,21,-2,2024-01-24 14:31:27,
4338,-475,-362,24,16,-7,2024-01-24 14:31:27,0.0
4246,-443,-315,-20,7,-6,2024-01-24 14:31:27,0.0
4298,-414,-312,-26,-30,31,2024-01-24 14:31:27,0.0
4277,-351,-309,-63,-44,39,2024-01-24 14:31:27,0.0
4348,-327,-368,-122,-49,14,2024-01-24 14:31:27,0.0
4318,-479,-371,-192,-15,6,2024-01-24 14:31:27,0.0
4431,-345,-411,-131,-14,29,2024-01-24 14:31:27,0.0
4274,-455,-361,-151,59,36,2024-01-24 14:31:27,0.0
4324,-486,-372,-83,4,31,2024-01-24 14:31:27,0.0
4310,-397,-305,-39,-23,13,2024-01-24 14:31:27,0.0
4359,-384,-423,-30,10,34,2024-01-24 14:31:27,0.0
4268,-381,-397,-93,13,38,2024-01-24 14:31:27,0.0
4346,-395,-444,-88,-89,25,2024-01-24 14:31:28,0.0
4310,-420,-520,-98,-73,2,2024-01-24 14:31:28,0.0
4292,-426,-420,-180,-81,-16,2024-01-24 14:31:28,0.0
4342,-262,-409,-226,-86,8,2024-01-24 14:31:28,0.0
4239,-710,-356,-262,-81,-7,2024-01-24 14:31:28,0.0
4328,-364,-505,-124,-41,20,2024-01-24 14:31:28,0.0
4419,-509,-429,-94,-8,-21,2024-01-24 14:31:28,0.0
4211,-326,-371,-72,-8,-8,2024-01-24 14:31:28,0.0
4421,-406,-474,-115,-52,-9,2024-01-24 14:31:28,0.0
4270,-472,-362,-19,-15,-2,2024-01-24 14:31:28,0.0
4356,-422,-391,1,-70,-18,2024-01-24 14:31:28,0.0
4307,-459,-455,54,-9,-12,2024-01-24 14:31:28,0.0
4317,-385,-448,46,-39,-22,2024-01-24 14:31:28,0.0
4322,-427,-376,61,-57,-20,2024-01-24 14:31:28,0.0
4316,-443,-457,72,-74,-11,2024-01-24 14:31:28,0.0
4284,-403,-419,79,-70,-8,2024-01-24 14:31:28,0.0
4344,-428,-444,71,-43,-4,2024-01-24 14:31:28,0.0
4334,-410,-358,52,-62,-2,2024-01-24 14:31:28,0.0
4361,-410,-402,11,-44,1,2024-01-24 14:31:29,0.0
4314,-444,-436,-23,8,1,2024-01-24 14:31:29,0.0
4290,-448,-368,-8,-33,21,2024-01-24 14:31:29,0.0
4308,-446,-441,-40,-10,5,2024-01-24 14:31:29,0.0
4332,-466,-403,-14,-34,24,2024-01-24 14:31:29,0.0
4329,-432,-429,-40,-3,16,2024-01-24 14:31:29,0.0
4288,-446,-426,-39,-46,24,2024-01-24 14:31:29,0.0
4357,-443,-414,-43,-25,18,2024-01-24 14:31:29,0.0
4324,-481,-414,-35,-47,31,2024-01-24 14:31:29,0.0
4291,-473,-416,-35,-43,28,2024-01-24 14:31:29,0.0
4337,-436,-444,-42,-25,30,2024-01-24 14:31:29,0.0
4276,-431,-394,-52,-35,38,2024-01-24 14:31:29,0.0
4309,-510,-429,-42,-29,40,2024-01-24 14:31:29,0.0
4278,-462,-442,-25,-50,43,2024-01-24 14:31:29,0.0
4308,-467,-433,-16,-36,33,2024-01-24 14:31:29,0.0
4320,-485,-429,-17,-42,38,2024-01-24 14:31:29,0.0
4333,-417,-462,-9,-51,41,2024-01-24 14:31:29,0.0
4291,-467,-472,-7,-26,34,2024-01-24 14:31:30,0.0
4327,-451,-440,1,-45,35,2024-01-24 14:31:30,0.0
4296,-430,-434,-18,-34,14,2024-01-24 14:31:30,0.0
4342,-432,-493,-21,-34,17,2024-01-24 14:31:30,0.0
4296,-462,-478,-31,-17,1,2024-01-24 14:31:30,0.0
4321,-436,-475,-29,-30,6,2024-01-24 14:31:30,0.0
4280,-461,-422,-13,-32,3,2024-01-24 14:31:30,0.0
4349,-394,-453,-10,-27,-3,2024-01-24 14:31:30,0.0
4330,-439,-445,-12,-11,2,2024-01-24 14:31:30,0.0
4291,-427,-466,21,-23,2,2024-01-24 14:31:30,0.0
4320,-469,-456,20,-38,-4,2024-01-24 14:31:30,0.0
4291,-475,-467,14,-5,-6,2024-01-24 14:31:30,0.0
4313,-464,-435,39,-31,-6,2024-01-24 14:31:30,0.0
4274,-459,-450,36,-29,-3,2024-01-24 14:31:30,0.0
4321,-471,-461,45,-15,-4,2024-01-24 14:31:30,0.0
4274,-467,-399,47,-22,1,2024-01-24 14:31:30,0.0
4297,-459,-446,44,-23,1,2024-01-24 14:31:30,0.0
4333,-487,-413,35,-26,3,2024-01-24 14:31:30,0.0
4307,-478,-401,28,-32,3,2024-01-24 14:31:31,0.0
4303,-478,-383,26,-14,7,2024-01-24 14:31:31,0.0
4329,-515,-379,27,-14,7,2024-01-24 14:31:31,0.0
4337,-464,-425,29,-33,5,2024-01-24 14:31:31,0.0
4274,-484,-391,36,-36,11,2024-01-24 14:31:31,0.0
4331,-469,-355,31,-34,1,2024-01-24 14:31:31,0.0
4370,-505,-446,0,-8,0,2024-01-24 14:31:31,0.0
4269,-516,-357,27,0,5,2024-01-24 14:31:31,0.0
4316,-484,-382,22,-41,8,2024-01-24 14:31:31,0.0
4308,-500,-382,24,-31,12,2024-01-24 14:31:31,0.0
4350,-496,-413,18,-30,7,2024-01-24 14:31:31,0.0
4263,-545,-352,14,-20,3,2024-01-24 14:31:31,0.0
4372,-478,-383,23,-36,7,2024-01-24 14:31:31,0.0
4294,-486,-353,22,-27,6,2024-01-24 14:31:31,0.0
4308,-491,-398,26,-50,10,2024-01-24 14:31:31,0.0
4313,-513,-433,15,-49,7,2024-01-24 14:31:31,0.0
4272,-528,-348,13,-46,20,2024-01-24 14:31:31,0.0
4287,-500,-378,12,-67,21,2024-01-24 14:31:32,0.0
4333,-537,-388,4,-45,17,2024-01-24 14:31:32,0.0
4329,-515,-353,-18,-24,17,2024-01-24 14:31:32,0.0
4338,-497,-415,-25,-43,20,2024-01-24 14:31:32,0.0
4291,-506,-415,-38,-38,16,2024-01-24 14:31:32,0.0
4343,-506,-399,-39,-55,23,2024-01-24 14:31:32,0.0
4268,-514,-393,-43,-43,19,2024-01-24 14:31:32,0.0
4320,-532,-398,-43,-48,18,2024-01-24 14:31:32,0.0
4265,-549,-426,-51,-39,22,2024-01-24 14:31:32,0.0
4334,-527,-430,-57,-39,21,2024-01-24 14:31:32,0.0
4311,-541,-429,-72,-59,24,2024-01-24 14:31:32,0.0
4321,-540,-453,-92,-59,24,2024-01-24 14:31:32,0.0
4319,-524,-413,-106,-80,26,2024-01-24 14:31:32,0.0
4377,-491,-491,-120,-54,22,2024-01-24 14:31:32,0.0
4276,-544,-448,-112,-19,32,2024-01-24 14:31:32,0.0
4329,-548,-471,-119,-8,19,2024-01-24 14:31:32,0.0
4270,-469,-401,-139,-59,31,2024-01-24 14:31:32,0.0
4322,-499,-481,-160,-59,30,2024-01-24 14:31:32,
4265,-576,-467,-174,-48,26,2024-01-24 14:31:33,0.0
4321,-507,-521,-152,-61,34,2024-01-24 14:31:33,0.0
4316,-546,-524,-164,-2,32,2024-01-24 14:31:33,0.0
4244,-489,-481,-167,-10,35,2024-01-24 14:31:33,0.0
4303,-516,-470,-180,-21,35,2024-01-24 14:31:33,0.0
4261,-498,-505,-181,-41,37,2024-01-24 14:31:33,0.0
4308,-535,-505,-198,-72,28,2024-01-24 14:31:33,0.0
4308,-515,-553,-189,-56,32,2024-01-24 14:31:33,0.0
4331,-555,-564,-165,-5,21,2024-01-24 14:31:33,0.0
4317,-518,-579,-153,-5,17,2024-01-24 14:31:33,0.0
4228,-517,-567,-125,11,11,2024-01-24 14:31:33,0.0
4296,-536,-533,-109,-2,-4,2024-01-24 14:31:33,0.0
4235,-451,-521,-95,-21,5,2024-01-24 14:31:33,0.0
4345,-473,-556,-86,-38,1,2024-01-24 14:31:33,0.0
4323,-518,-527,-50,-44,4,2024-01-24 14:31:33,0.0
4326,-532,-532,-21,17,-4,2024-01-24 14:31:33,0.0
4300,-493,-534,17,-7,-3,2024-01-24 14:31:33,0.0
4355,-537,-574,32,27,-19,2024-01-24 14:31:34,0.0
4215,-481,-462,38,-36,3,2024-01-24 14:31:34,0.0
4360,-459,-521,12,-61,-18,2024-01-24 14:31:34,0.0
4340,-515,-536,34,-20,-6,2024-01-24 14:31:34,0.0
4291,-525,-520,76,15,-28,2024-01-24 14:31:34,0.0
4283,-468,-415,79,-15,-25,2024-01-24 14:31:34,0.0
4281,-456,-509,76,-25,-19,2024-01-24 14:31:34,0.0
4227,-454,-424,64,-53,-21,2024-01-24 14:31:34,0.0
4380,-532,-514,81,-36,-17,2024-01-24 14:31:34,0.0
4307,-509,-474,72,30,-33,2024-01-24 14:31:34,0.0
4288,-529,-457,103,10,-13,2024-01-24 14:31:34,0.0
4335,-475,-449,75,-10,-13,2024-01-24 14:31:34,0.0
4264,-500,-441,71,-21,-9,2024-01-24 14:31:34,0.0
4365,-458,-457,41,-49,-4,2024-01-24 14:31:34,0.0
4275,-536,-411,35,-52,2,2024-01-24 14:31:34,0.0
4358,-467,-479,42,-37,-8,2024-01-24 14:31:34,0.0
4259,-504,-445,39,-1,-5,2024-01-24 14:31:34,0.0
4318,-519,-357,49,-46,5,2024-01-24 14:31:34,0.0
4292,-503,-438,38,-20,-4,2024-01-24 14:31:35,0.0
4292,-478,-442,14,-29,3,2024-01-24 14:31:35,0.0
4322,-512,-406,6,-53,6,2024-01-24 14:31:35,0.0
4328,-540,-367,3,-6,10,2024-01-24 14:31:35,0.0
4351,-478,-452,-9,-25,16,2024-01-24 14:31:35,0.0
4269,-580,-436,-17,1,21,2024-01-24 14:31:35,0.0
4327,-524,-433,-21,-19,19,2024-01-24 14:31:35,0.0
4287,-543,-450,-40,-28,23,2024-01-24 14:31:35,0.0
4300,-533,-463,-48,-37,23,2024-01-24 14:31:35,0.0
4323,-551,-424,-67,-20,36,2024-01-24 14:31:35,0.0
4278,-518,-428,-66,-36,32,2024-01-24 14:31:35,0.0
4316,-588,-421,-58,-60,30,2024-01-24 14:31:35,0.0
4336,-559,-405,-46,-45,17,2024-01-24 14:31:35,0.0
4338,-490,-462,-73,-79,22,2024-01-24 14:31:35,0.0
4322,-482,-510,-98,-31,22,2024-01-24 14:31:35,0.0
4302,-476,-495,-158,-42,31,2024-01-24 14:31:35,0.0
4324,-530,-513,-171,-21,34,2024-01-24 14:31:35,0.0
4297,-524,-436,-196,-23,34,2024-01-24 14:31:36,0.0
4286,-503,-509,-207,-6,39,2024-01-24 14:31:36,0.0
4318,-524,-430,-192,-33,38,2024-01-24 14:31:36,0.0
4256,-465,-534,-198,-30,38,2024-01-24 14:31:36,0.0
4337,-504,-505,-174,-36,39,2024-01-24 14:31:36,0.0
4259,-482,-489,-159,-33,31,2024-01-24 14:31:36,0.0
4362,-494,-551,-127,-25,19,2024-01-24 14:31:36,0.0
4280,-482,-535,-112,-40,14,2024-01-24 14:31:36,0.0
4296,-497,-553,-85,-16,2,2024-01-24 14:31:36,0.0
4344,-492,-513,-75,-15,-7,2024-01-24 14:31:36,0.0
4269,-509,-523,-50,-2,-9,2024-01-24 14:31:36,0.0
4291,-418,-521,-25,-17,-12,2024-01-24 14:31:36,0.0
4321,-465,-512,-12,-12,-12,2024-01-24 14:31:36,0.0
4309,-437,-515,-9,-19,-19,2024-01-24 14:31:36,0.0
4311,-468,-497,-3,-14,-13,2024-01-24 14:31:36,0.0
4331,-418,-464,5,-26,-17,2024-01-24 14:31:36,0.0
4250,-465,-444,8,-22,-17,2024-01-24 14:31:36,0.0
4344,-413,-545,-2,-36,-15,2024-01-24 14:31:36,0.0
4285,-480,-447,-8,-14,-16,2024-01-24 14:31:37,0.0
4304,-460,-395,-1,-33,-11,2024-01-24 14:31:37,0.0
4358,-490,-465,-1,-31,-3,2024-01-24 14:31:37,0.0
4298,-463,-476,0,-15,-4,2024-01-24 14:31:37,0.0
4330,-472,-418,-3,-24,-5,2024-01-24 14:31:37,0.0
4315,-507,-386,-6,-26,-5,2024-01-24 14:31:37,0.0
4326,-500,-435,4,-18,7,2024-01-24 14:31:37,0.0
4335,-532,-402,-6,-7,-1,2024-01-24 14:31:37,0.0
4296,-495,-427,-6,-20,7,2024-01-24 14:31:37,0.0
4324,-522,-416,-10,-22,4,2024-01-24 14:31:37,0.0
4257,-542,-407,-1,-23,10,2024-01-24 14:31:37,0.0
4304,-522,-434,-15,-28,11,2024-01-24 14:31:37,0.0
4315,-508,-428,-14,-34,12,2024-01-24 14:31:37,0.0
4279,-523,-375,-23,-18,17,2024-01-24 14:31:37,0.0
4301,-536,-447,-33,-16,25,2024-01-24 14:31:37,0.0
4315,-527,-420,-26,-13,18,2024-01-24 14:31:37,0.0
4294,-496,-377,-43,-20,17,2024-01-24 14:31:37,0.0
4309,-524,-465,-67,-7,20,2024-01-24 14:31:38,0.0
4289,-491,-407,-59,-14,29,2024-01-24 14:31:38,0.0
4326,-514,-413,-72,-18,31,2024-01-24 14:31:38,0.0
4285,-475,-368,-85,-7,29,2024-01-24 14:31:38,0.0
4348,-501,-421,-95,-30,29,2024-01-24 14:31:38,0.0
4250,-458,-382,-106,-25,30,2024-01-24 14:31:38,0.0
4320,-501,-413,-117,-38,33,2024-01-24 14:31:38,0.0
4312,-482,-467,-117,-22,31,2024-01-24 14:31:38,0.0
4307,-506,-418,-123,-38,29,2024-01-24 14:31:38,0.0
4293,-481,-430,-121,-46,31,2024-01-24 14:31:38,0.0
4247,-519,-427,-100,-35,28,2024-01-24 14:31:38,0.0
4300,-530,-473,-98,-47,28,2024-01-24 14:31:38,0.0
4268,-466,-417,-90,-54,27,2024-01-24 14:31:38,
4346,-541,-490,-97,-40,27,2024-01-24 14:31:38,0.0
4334,-517,-451,-58,-30,29,2024-01-24 14:31:38,0.0
4319,-498,-498,-67,-35,20,2024-01-24 14:31:38,0.0
4339,-507,-448,-54,-34,19,2024-01-24 14:31:38,0.0
4283,-466,-482,-55,-10,16,2024-01-24 14:31:38,0.0
4333,-465,-443,-43,-16,15,2024-01-24 14:31:39,0.0
4316,-482,-501,-52,-21,3,2024-01-24 14:31:39,0.0
4307,-485,-441,-52,-28,6,2024-01-24 14:31:39,0.0
4303,-509,-448,-37,-19,-6,2024-01-24 14:31:39,0.0
4281,-478,-484,-39,-44,3,2024-01-24 14:31:39,0.0
4332,-493,-497,-38,-39,-10,2024-01-24 14:31:39,0.0
4293,-545,-487,-27,-43,-2,2024-01-24 14:31:39,0.0
4306,-510,-476,-12,-47,-7,2024-01-24 14:31:39,0.0
4295,-487,-391,-42,-27,-5,2024-01-24 14:31:39,0.0
4316,-532,-493,-27,-3,-13,2024-01-24 14:31:39,0.0
4286,-446,-474,-37,-1,-19,2024-01-24 14:31:39,0.0
4279,-493,-497,-36,-8,-22,2024-01-24 14:31:39,0.0
4325,-460,-456,-46,7,-35,2024-01-24 14:31:39,0.0
4292,-408,-417,-58,14,-47,2024-01-24 14:31:39,0.0
4298,-447,-414,-35,16,-53,2024-01-24 14:31:39,0.0
4322,-373,-413,-29,13,-67,2024-01-24 14:31:39,0.0
4356,-397,-408,-5,31,-66,2024-01-24 14:31:39,0.0
4312,-356,-349,1,19,-79,2024-01-24 14:31:40,0.0
4315,-351,-383,14,7,-78,2024-01-24 14:31:40,0.0
4284,-420,-382,45,-7,-61,2024-01-24 14:31:40,0.0
4301,-401,-368,77,-34,-67,2024-01-24 14:31:40,0.0
4322,-356,-295,69,8,-89,2024-01-24 14:31:40,0.0
4422,-245,-221,34,13,-69,2024-01-24 14:31:40,0.0
4341,-369,-234,29,104,-62,2024-01-24 14:31:40,0.0
4342,-316,-155,60,35,-15,2024-01-24 14:31:40,0.0
4344,-388,-207,74,58,-3,2024-01-24 14:31:40,0.0
4281,-243,-207,63,32,2,2024-01-24 14:31:40,0.0
4352,-342,-226,67,50,16,2024-01-24 14:31:40,0.0
4338,-342,-219,65,56,1,2024-01-24 14:31:40,0.0
4351,-379,-163,77,66,-1,2024-01-24 14:31:40,0.0
4292,-280,-213,52,57,-3,2024-01-24 14:31:40,0.0
4375,-342,-135,69,66,3,2024-01-24 14:31:40,0.0
4308,-312,-141,41,4,-2,2024-01-24 14:31:40,0.0
4383,-311,-135,27,18,-7,2024-01-24 14:31:40,0.0
4340,-311,-65,-6,17,-1,2024-01-24 14:31:40,0.0
4371,-288,-89,-23,-25,3,2024-01-24 14:31:41,0.0
4296,-308,-67,-29,-1,6,2024-01-24 14:31:41,0.0
4362,-307,-63,-49,-24,2,2024-01-24 14:31:41,0.0
4331,-267,-47,-72,-50,15,2024-01-24 14:31:41,0.0
4344,-274,-76,-101,-28,20,2024-01-24 14:31:41,0.0
4356,-292,-76,-115,-21,32,2024-01-24 14:31:41,0.0
4369,-314,-40,-135,-18,40,2024-01-24 14:31:41,0.0
4342,-279,-49,-164,21,36,2024-01-24 14:31:41,0.0
4287,-257,-57,-186,-10,40,2024-01-24 14:31:41,0.0
4308,-288,-44,-209,-14,40,2024-01-24 14:31:41,0.0
4373,-317,-55,-214,-9,29,2024-01-24 14:31:41,0.0
4339,-342,-17,-195,-14,32,2024-01-24 14:31:41,0.0
4323,-270,-67,-206,-24,31,2024-01-24 14:31:41,0.0
4372,-303,-47,-230,-19,33,2024-01-24 14:31:41,0.0
4317,-328,-66,-201,-45,50,2024-01-24 14:31:41,0.0
4373,-348,-105,-193,-13,46,2024-01-24 14:31:41,0.0
4311,-307,-69,-160,-1,50,2024-01-24 14:31:41,0.0
4337,-331,-44,-156,-24,49,2024-01-24 14:31:42,0.0
4356,-310,-84,-135,-17,46,2024-01-24 14:31:42,0.0
4284,-334,-65,-134,-41,41,2024-01-24 14:31:42,0.0
4352,-316,-111,-115,-32,39,2024-01-24 14:31:42,0.0
4294,-323,-103,-109,-46,30,2024-01-24 14:31:42,0.0
4361,-358,-126,-89,-19,20,2024-01-24 14:31:42,0.0
4346,-323,-96,-77,-29,12,2024-01-24 14:31:42,0.0
4322,-337,-143,-68,-28,3,2024-01-24 14:31:42,0.0
4372,-333,-90,-44,-15,4,2024-01-24 14:31:42,0.0
4359,-337,-61,-60,-25,0,2024-01-24 14:31:42,0.0
4284,-365,-85,-35,-28,7,2024-01-24 14:31:42,0.0
4335,-353,-89,-33,-24,1,2024-01-24 14:31:42,0.0
4348,-355,-54,-23,-26,3,2024-01-24 14:31:42,0.0
4319,-346,-102,-27,-31,0,2024-01-24 14:31:42,0.0
4350,-360,-98,-16,-25,1,2024-01-24 14:31:42,0.0
4329,-378,-51,-3,-35,4,2024-01-24 14:31:42,0.0
4378,-324,-77,-4,-35,-3,2024-01-24 14:31:42,0.0
4319,-374,-85,7,-31,0,2024-01-24 14:31:42,0.0
4368,-350,-82,22,-38,-2,2024-01-24 14:31:43,0.0
4341,-333,-98,32,-39,-3,2024-01-24 14:31:43,0.0
4340,-347,-81,43,-46,-8,2024-01-24 14:31:43,0.0
4385,-369,-103,59,-44,-5,2024-01-24 14:31:43,0.0
4312,-334,-147,66,-15,-22,2024-01-24 14:31:43,0.0
4304,-329,-43,65,-49,-7,2024-01-24 14:31:43,0.0
4359,-350,-86,109,-57,-10,2024-01-24 14:31:43,0.0
4303,-333,-97,104,-60,-4,2024-01-24 14:31:43,0.0
4349,-319,-133,115,-68,-10,2024-01-24 14:31:43,0.0
4360,-369,-107,119,-54,-1,2024-01-24 14:31:43,0.0
4335,-314,-154,119,-56,-7,2024-01-24 14:31:43,0.0
4320,-341,-117,121,-24,-8,2024-01-24 14:31:43,0.0
4298,-323,-54,111,-50,5,2024-01-24 14:31:43,0.0
4382,-345,-97,119,-37,1,2024-01-24 14:31:43,0.0
4337,-292,-107,93,-43,-3,2024-01-24 14:31:43,0.0
4351,-328,-87,97,-54,7,2024-01-24 14:31:43,0.0
4330,-301,-150,76,-57,-1,2024-01-24 14:31:43,0.0
4309,-328,-76,66,-49,4,2024-01-24 14:31:44,0.0
4364,-317,-130,60,-37,7,2024-01-24 14:31:44,0.0
4334,-353,-47,59,-33,0,2024-01-24 14:31:44,0.0
4329,-268,-81,31,-40,-6,2024-01-24 14:31:44,0.0
4332,-353,-77,24,-41,8,2024-01-24 14:31:44,0.0
4305,-355,-126,18,-46,24,2024-01-24 14:31:44,0.0
4405,-379,-105,9,-18,21,2024-01-24 14:31:44,0.0
4310,-344,-92,11,-2,18,2024-01-24 14:31:44,
4373,-377,-80,-7,-20,16,2024-01-24 14:31:44,0.0
4320,-396,-66,-17,-36,17,2024-01-24 14:31:44,0.0
4337,-368,-87,-30,-45,22,2024-01-24 14:31:44,0.0
4361,-383,-120,-33,-45,24,2024-01-24 14:31:44,0.0
4374,-379,-137,-49,-50,23,2024-01-24 14:31:44,0.0
4329,-382,-99,-53,-43,16,2024-01-24 14:31:44,0.0
4308,-367,-141,-60,-65,20,2024-01-24 14:31:44,0.0
4388,-381,-147,-70,-63,17,2024-01-24 14:31:44,0.0
4343,-334,-149,-76,-43,14,2024-01-24 14:31:44,0.0
4346,-353,-161,-107,-49,12,2024-01-24 14:31:44,0.0
4376,-391,-154,-99,-33,18,2024-01-24 14:31:45,0.0
4321,-329,-169,-113,-18,11,2024-01-24 14:31:45,0.0
4336,-370,-175,-120,-40,20,2024-01-24 14:31:45,0.0
4355,-339,-178,-132,-17,16,2024-01-24 14:31:45,0.0
4319,-337,-192,-152,-36,24,2024-01-24 14:31:45,0.0
4344,-353,-173,-149,-48,23,2024-01-24 14:31:45,0.0
4312,-334,-222,-158,-40,30,2024-01-24 14:31:45,0.0
4424,-353,-221,-167,-40,28,2024-01-24 14:31:45,0.0
4284,-370,-167,-174,-26,26,2024-01-24 14:31:45,0.0
4342,-351,-228,-173,-14,22,2024-01-24 14:31:45,0.0
4302,-329,-178,-178,-10,21,2024-01-24 14:31:45,0.0
4335,-364,-214,-199,2,16,2024-01-24 14:31:45,0.0
4326,-351,-154,-183,4,16,2024-01-24 14:31:45,0.0
4346,-344,-211,-169,22,8,2024-01-24 14:31:45,0.0
4330,-343,-145,-180,1,11,2024-01-24 14:31:45,0.0
4359,-304,-164,-168,4,5,2024-01-24 14:31:45,0.0
4325,-347,-158,-165,-11,11,2024-01-24 14:31:45,0.0
4361,-331,-166,-143,15,8,2024-01-24 14:31:46,0.0
4332,-285,-155,-144,-23,14,2024-01-24 14:31:46,0.0
4361,-329,-171,-111,-27,7,2024-01-24 14:31:46,0.0
4359,-325,-125,-93,-8,-5,2024-01-24 14:31:46,0.0
4347,-269,-223,-110,-14,-10,2024-01-24 14:31:46,0.0
4368,-329,-186,-95,-3,-5,2024-01-24 14:31:46,0.0
4312,-353,-87,-56,11,0,2024-01-24 14:31:46,0.0
4350,-254,-158,-31,0,-6,2024-01-24 14:31:46,0.0
4325,-282,-117,-14,-32,-6,2024-01-24 14:31:46,0.0
4385,-274,-130,-10,-20,-23,2024-01-24 14:31:46,0.0
4323,-267,-125,-2,-48,-22,2024-01-24 14:31:46,0.0
4329,-307,-151,22,-43,-12,2024-01-24 14:31:46,0.0
4328,-309,-136,46,-33,-14,2024-01-24 14:31:46,0.0
4342,-296,-113,56,-39,-10,2024-01-24 14:31:46,0.0
4363,-278,-119,57,-48,-7,2024-01-24 14:31:46,0.0
4343,-283,-182,66,-51,-5,2024-01-24 14:31:46,0.0
4363,-289,-106,76,-26,5,2024-01-24 14:31:46,0.0
4363,-252,-159,65,-37,10,2024-01-24 14:31:46,0.0
4342,-298,-164,106,-38,19,2024-01-24 14:31:47,0.0
4379,-319,-157,94,-37,7,2024-01-24 14:31:47,0.0
4349,-352,-143,125,-37,11,2024-01-24 14:31:47,0.0
4333,-283,-168,116,-58,8,2024-01-24 14:31:47,0.0
4383,-306,-162,117,-58,11,2024-01-24 14:31:47,0.0
4324,-335,-138,116,-37,4,2024-01-24 14:31:47,0.0
4347,-297,-167,120,-64,6,2024-01-24 14:31:47,0.0
4357,-323,-135,106,-39,10,2024-01-24 14:31:47,0.0
4339,-332,-179,97,-51,7,2024-01-24 14:31:47,0.0
4306,-292,-154,80,-52,7,2024-01-24 14:31:47,0.0
4352,-305,-177,61,-30,11,2024-01-24 14:31:47,0.0
4331,-360,-102,40,-48,2,2024-01-24 14:31:47,0.0
4318,-304,-161,49,-61,6,2024-01-24 14:31:47,0.0
4385,-316,-142,18,-32,7,2024-01-24 14:31:47,0.0
4354,-308,-191,-8,-41,5,2024-01-24 14:31:47,0.0
4354,-346,-164,-22,-31,7,2024-01-24 14:31:47,0.0
4341,-321,-189,-28,-30,2,2024-01-24 14:31:47,0.0
4368,-333,-134,-54,-19,4,2024-01-24 14:31:48,0.0
4364,-327,-141,-83,8,2,2024-01-24 14:31:48,0.0
4339,-334,-102,-97,-9,9,2024-01-24 14:31:48,0.0
4347,-340,-166,-101,-47,15,2024-01-24 14:31:48,0.0
4347,-352,-135,-116,-7,16,2024-01-24 14:31:48,0.0
4285,-293,-117,-156,3,14,2024-01-24 14:31:48,0.0
4394,-359,-72,-175,14,19,2024-01-24 14:31:48,0.0
4359,-316,-139,-123,-33,24,2024-01-24 14:31:48,0.0
4333,-326,-137,-151,-59,37,2024-01-24 14:31:48,0.0
4328,-331,-174,-158,-22,26,2024-01-24 14:31:48,0.0
4309,-332,-159,-178,-5,31,2024-01-24 14:31:48,0.0
4326,-379,-97,-170,-10,26,2024-01-24 14:31:48,0.0
4333,-346,-105,-157,-6,33,2024-01-24 14:31:48,0.0
4343,-295,-109,-188,-39,51,2024-01-24 14:31:48,0.0
4364,-328,-111,-179,-52,49,2024-01-24 14:31:48,0.0
4348,-334,-171,-177,-26,35,2024-01-24 14:31:48,0.0
4241,-381,-149,-195,-47,60,2024-01-24 14:31:48,0.0
4420,-297,-204,-157,117,6,2024-01-24 14:31:49,0.0
4271,-361,-90,-156,36,42,2024-01-24 14:31:49,0.0
4344,-270,-109,-165,-36,40,2024-01-24 14:31:49,0.0
4357,-359,-55,-139,-40,54,2024-01-24 14:31:49,0.0
4306,-282,-91,-146,-68,29,2024-01-24 14:31:49,0.0
4351,-292,-143,-137,-11,25,2024-01-24 14:31:49,0.0
4359,-356,-121,-93,11,2,2024-01-24 14:31:49,0.0
4377,-264,-59,-88,23,-3,2024-01-24 14:31:49,0.0
4281,-363,-161,-64,-11,11,2024-01-24 14:31:49,0.0
4351,-319,-22,-42,-53,9,2024-01-24 14:31:49,0.0
4320,-310,-129,-34,-83,6,2024-01-24 14:31:49,0.0
4383,-413,-145,-7,-70,15,2024-01-24 14:31:49,0.0
4341,-407,-171,36,-43,1,2024-01-24 14:31:49,0.0
4366,-371,-162,88,-1,0,2024-01-24 14:31:49,0.0
4350,-380,-120,93,-59,7,2024-01-24 14:31:49,0.0
4307,-400,-99,105,-71,3,2024-01-24 14:31:49,0.0
4347,-409,-153,111,-92,1,2024-01-24 14:31:49,0.0
4320,-415,-174,124,-76,-2,2024-01-24 14:31:49,0.0
4315,-407,-136,132,-69,-6,2024-01-24 14:31:50,0.0
4337,-400,-199,169,-60,-6,2024-01-24 14:31:50,0.0
4300,-351,-105,171,-64,-1,2024-01-24 14:31:50,
4337,-389,-154,161,-92,-3,2024-01-24 14:31:50,0.0
4359,-370,-201,157,-72,-5,2024-01-24 14:31:50,0.0
4308,-389,-203,143,-79,0,2024-01-24 14:31:50,0.0
4360,-376,-160,138,-82,-12,2024-01-24 14:31:50,0.0
4344,-364,-221,142,-83,-7,2024-01-24 14:31:50,0.0
4334,-359,-184,97,-98,-11,2024-01-24 14:31:50,0.0
4319,-395,-220,88,-103,2,2024-01-24 14:31:50,0.0
4326,-394,-239,70,-94,-1,2024-01-24 14:31:50,0.0
4352,-393,-271,37,-83,2,2024-01-24 14:31:50,0.0
4338,-436,-254,20,-54,5,2024-01-24 14:31:50,0.0
4324,-379,-258,-18,-55,5,2024-01-24 14:31:50,0.0
4344,-382,-282,-28,-50,10,2024-01-24 14:31:50,0.0
4346,-408,-235,-48,-41,12,2024-01-24 14:31:50,0.0
4325,-395,-235,-69,-29,14,2024-01-24 14:31:50,0.0
4354,-443,-279,-80,-18,14,2024-01-24 14:31:51,0.0
4333,-394,-248,-92,-12,19,2024-01-24 14:31:51,0.0
4328,-401,-288,-114,-28,30,2024-01-24 14:31:51,0.0
4367,-416,-326,-117,-1,34,2024-01-24 14:31:51,0.0
4345,-398,-208,-131,-3,34,2024-01-24 14:31:51,0.0
4341,-372,-338,-168,-1,31,2024-01-24 14:31:51,0.0
4303,-398,-264,-163,0,37,2024-01-24 14:31:51,0.0
4317,-415,-300,-173,-13,37,2024-01-24 14:31:51,0.0
4348,-351,-306,-188,0,35,2024-01-24 14:31:51,0.0
4306,-382,-238,-202,12,25,2024-01-24 14:31:51,0.0
4352,-340,-243,-243,-7,26,2024-01-24 14:31:51,0.0
4324,-366,-300,-239,-13,34,2024-01-24 14:31:51,0.0
4346,-393,-316,-236,-6,35,2024-01-24 14:31:51,0.0
4342,-357,-282,-237,1,30,2024-01-24 14:31:51,0.0
4326,-379,-245,-243,-1,35,2024-01-24 14:31:51,0.0
4343,-363,-291,-233,-2,31,2024-01-24 14:31:51,0.0
4335,-395,-252,-218,-14,25,2024-01-24 14:31:51,0.0
4327,-383,-310,-190,-24,26,2024-01-24 14:31:51,0.0
4319,-372,-315,-176,-4,19,2024-01-24 14:31:52,0.0
4327,-352,-251,-167,16,9,2024-01-24 14:31:52,0.0
4363,-335,-293,-139,-18,9,2024-01-24 14:31:52,0.0
4305,-355,-205,-119,-14,-2,2024-01-24 14:31:52,0.0
4328,-369,-261,-83,-36,5,2024-01-24 14:31:52,0.0
4334,-410,-261,-53,-30,-1,2024-01-24 14:31:52,0.0
4323,-356,-253,-17,-52,0,2024-01-24 14:31:52,0.0
4342,-416,-274,17,-68,-8,2024-01-24 14:31:52,0.0
4363,-417,-256,62,-44,-18,2024-01-24 14:31:52,0.0
4308,-396,-282,98,-57,-16,2024-01-24 14:31:52,0.0
4324,-383,-271,116,-52,-17,2024-01-24 14:31:52,0.0
4311,-398,-254,145,-43,-10,2024-01-24 14:31:52,0.0
4319,-420,-264,174,-60,-16,2024-01-24 14:31:52,0.0
4294,-396,-281,188,-81,-3,2024-01-24 14:31:52,0.0
4365,-418,-320,181,-69,-7,2024-01-24 14:31:52,0.0
4301,-393,-284,215,-53,-12,2024-01-24 14:31:52,0.0
4359,-370,-296,205,-59,-11,2024-01-24 14:31:52,0.0
4337,-367,-257,194,-56,-9,2024-01-24 14:31:53,0.0
4319,-398,-340,175,-58,-8,2024-01-24 14:31:53,0.0
4350,-364,-242,169,-69,-3,2024-01-24 14:31:53,0.0
4330,-397,-264,152,-83,2,2024-01-24 14:31:53,0.0
4340,-395,-314,145,-65,1,2024-01-24 14:31:53,0.0
4310,-420,-307,118,-48,-7,2024-01-24 14:31:53,0.0
4346,-387,-299,89,-39,-5,2024-01-24 14:31:53,0.0
4350,-401,-279,58,-11,1,2024-01-24 14:31:53,0.0
4292,-386,-311,39,-29,3,2024-01-24 14:31:53,0.0
4353,-419,-279,23,-15,14,2024-01-24 14:31:53,0.0
4318,-419,-293,-22,-5,12,2024-01-24 14:31:53,0.0
4349,-394,-316,-29,-6,15,2024-01-24 14:31:53,0.0
4318,-413,-256,-65,-9,13,2024-01-24 14:31:53,0.0
4337,-421,-238,-76,-1,16,2024-01-24 14:31:53,0.0
4381,-414,-269,-90,5,16,2024-01-24 14:31:53,0.0
4331,-402,-258,-103,-1,23,2024-01-24 14:31:53,0.0
4319,-394,-269,-114,-13,27,2024-01-24 14:31:53,0.0
4323,-418,-205,-124,-6,21,2024-01-24 14:31:53,0.0
4346,-405,-201,-132,-5,27,2024-01-24 14:31:54,0.0
4336,-376,-228,-148,-7,23,2024-01-24 14:31:54,0.0
4344,-419,-258,-143,6,26,2024-01-24 14:31:54,0.0
4307,-400,-241,-161,-16,27,2024-01-24 14:31:54,0.0
4315,-383,-288,-162,-1,23,2024-01-24 14:31:54,0.0
4355,-410,-197,-176,12,27,2024-01-24 14:31:54,0.0
4301,-387,-247,-158,-8,32,2024-01-24 14:31:54,0.0
4328,-432,-251,-180,-4,26,2024-01-24 14:31:54,0.0
4294,-423,-218,-172,-11,31,2024-01-24 14:31:54,0.0
4376,-391,-228,-203,-14,21,2024-01-24 14:31:54,0.0
4301,-379,-200,-199,-8,23,2024-01-24 14:31:54,0.0
4343,-433,-225,-182,-21,29,2024-01-24 14:31:54,0.0
4337,-408,-201,-151,9,22,2024-01-24 14:31:54,0.0
4333,-411,-211,-141,21,16,2024-01-24 14:31:54,0.0
4316,-412,-226,-141,-15,22,2024-01-24 14:31:54,0.0
4297,-389,-232,-127,-26,10,2024-01-24 14:31:54,0.0
4283,-340,-207,-108,-31,23,2024-01-24 14:31:54,0.0
4340,-427,-209,-93,-19,15,2024-01-24 14:31:55,0.0
4338,-384,-227,-45,-24,14,2024-01-24 14:31:55,0.0
4338,-420,-259,-35,-25,8,2024-01-24 14:31:55,0.0
4351,-334,-225,-31,-25,0,2024-01-24 14:31:55,0.0
4346,-405,-217,-12,-14,1,2024-01-24 14:31:55,0.0
4264,-378,-184,-1,-44,0,2024-01-24 14:31:55,0.0
4360,-410,-203,22,-31,3,2024-01-24 14:31:55,0.0
4281,-356,-237,16,-57,3,2024-01-24 14:31:55,0.0
4298,-423,-234,33,-60,-1,2024-01-24 14:31:55,0.0
4352,-391,-188,27,-49,-9,2024-01-24 14:31:55,0.0
4270,-377,-194,43,-42,-9,2024-01-24 14:31:55,0.0
4346,-378,-222,34,-61,-6,2024-01-24 14:31:55,0.0
4320,-426,-222,29,-52,-8,2024-01-24 14:31:55,0.0
4309,-389,-216,50,-66,-7,2024-01-24 14:31:55,0.0
4360,-406,-270,41,-50,-11,2024-01-24 14:31:55,0.0
4315,-396,-260,29,-54,-11,2024-01-24 14:31:55,
4330,-404,-226,31,-39,-6,2024-01-24 14:31:55,0.0
4301,-400,-231,33,-46,-6,2024-01-24 14:31:55,0.0
4333,-383,-195,25,-43,-3,2024-01-24 14:31:56,0.0
4313,-395,-217,21,-35,1,2024-01-24 14:31:56,0.0
4321,-400,-246,16,-30,-3,2024-01-24 14:31:56,0.0
4338,-386,-245,10,-46,-3,2024-01-24 14:31:56,0.0
4342,-353,-207,7,-24,1,2024-01-24 14:31:56,0.0
4326,-423,-208,10,-27,0,2024-01-24 14:31:56,0.0
4355,-385,-264,-3,-18,4,2024-01-24 14:31:56,0.0
4307,-417,-220,10,-37,7,2024-01-24 14:31:56,0.0
4320,-404,-246,7,-34,2,2024-01-24 14:31:56,0.0
4326,-407,-214,-8,-51,5,2024-01-24 14:31:56,0.0
4350,-440,-247,-6,-18,7,2024-01-24 14:31:56,0.0
4326,-408,-243,-14,-37,6,2024-01-24 14:31:56,0.0
4343,-428,-212,-19,-37,8,2024-01-24 14:31:56,0.0
4296,-382,-256,-26,-38,15,2024-01-24 14:31:56,0.0
4338,-408,-218,-41,-29,14,2024-01-24 14:31:56,0.0
4326,-369,-227,-59,-43,9,2024-01-24 14:31:56,0.0
4294,-418,-254,-52,-27,19,2024-01-24 14:31:56,0.0
4339,-403,-285,-70,-42,24,2024-01-24 14:31:57,0.0
4321,-399,-267,-86,-5,23,2024-01-24 14:31:57,0.0
4314,-362,-279,-91,-43,26,2024-01-24 14:31:57,0.0
4355,-410,-275,-125,-12,21,2024-01-24 14:31:57,0.0
4339,-415,-229,-120,-19,25,2024-01-24 14:31:57,0.0
4352,-389,-288,-126,-1,19,2024-01-24 14:31:57,0.0
4309,-374,-274,-126,-3,21,2024-01-24 14:31:57,0.0
4346,-376,-292,-135,-6,24,2024-01-24 14:31:57,0.0
4318,-366,-254,-149,-43,36,2024-01-24 14:31:57,0.0
4329,-352,-258,-145,-46,32,2024-01-24 14:31:57,0.0
4347,-395,-288,-147,-28,22,2024-01-24 14:31:57,0.0
4302,-381,-250,-123,-13,25,2024-01-24 14:31:57,0.0
4365,-375,-242,-113,-22,30,2024-01-24 14:31:57,0.0
4318,-381,-280,-118,-31,21,2024-01-24 14:31:57,0.0
4326,-351,-228,-105,-65,17,2024-01-24 14:31:57,0.0
4331,-407,-350,-94,-86,20,2024-01-24 14:31:57,0.0
4355,-382,-302,-83,-40,10,2024-01-24 14:31:57,0.0
4337,-417,-277,-55,-33,11,2024-01-24 14:31:57,0.0
4335,-413,-306,-41,-37,8,2024-01-24 14:31:58,0.0
4306,-414,-279,-30,-48,14,2024-01-24 14:31:58,0.0
4268,-379,-272,-30,-53,6,2024-01-24 14:31:58,0.0
4362,-377,-348,-22,-57,8,2024-01-24 14:31:58,0.0
4344,-387,-332,-20,-31,-1,2024-01-24 14:31:58,0.0
4330,-386,-326,0,-30,-1,2024-01-24 14:31:58,0.0
4327,-346,-305,12,-56,4,2024-01-24 14:31:58,0.0
4315,-400,-291,-1,-70,-5,2024-01-24 14:31:58,0.0
4341,-376,-370,-5,-54,-14,2024-01-24 14:31:58,0.0
4339,-418,-297,-7,-19,-13,2024-01-24 14:31:58,0.0
4305,-372,-318,3,10,-8,2024-01-24 14:31:58,0.0
4321,-408,-257,3,-4,-5,2024-01-24 14:32:02,0.0
4331,-416,-263,-1,-6,-14,2024-01-24 14:32:03,0.0
4312,-376,-267,2,-27,-7,2024-01-24 14:32:03,0.0
4332,-424,-300,9,-27,-15,2024-01-24 14:32:03,0.0
4290,-431,-315,28,-41,-15,2024-01-24 14:32:03,0.0
4359,-404,-230,41,-32,-16,2024-01-24 14:32:03,0.0
4326,-360,-334,25,-45,-17,2024-01-24 14:32:03,0.0
4381,-356,-276,-7,-41,-7,2024-01-24 14:32:03,0.0
4336,-403,-318,-26,-24,-6,2024-01-24 14:32:03,0.0
4317,-348,-345,-67,-18,32,2024-01-24 14:32:03,0.0
4293,-299,-396,-95,-51,37,2024-01-24 14:32:03,0.0
4344,-332,-336,-100,-9,42,2024-01-24 14:32:03,0.0
4275,-297,-358,-112,-40,39,2024-01-24 14:32:03,0.0
4335,-335,-372,-108,-39,43,2024-01-24 14:32:03,0.0
4329,-330,-384,-129,-20,31,2024-01-24 14:32:03,0.0
4318,-369,-402,-122,-25,49,2024-01-24 14:32:03,0.0
4274,-265,-336,-153,-18,61,2024-01-24 14:32:03,0.0
4365,-397,-392,-179,-77,49,2024-01-24 14:32:03,0.0
4290,-394,-345,-191,-82,47,2024-01-24 14:32:03,0.0
4370,-459,-405,-157,-64,90,2024-01-24 14:32:03,0.0
4252,-484,-497,-86,-77,52,2024-01-24 14:32:03,0.0
4309,-569,-443,3,-105,45,2024-01-24 14:32:03,0.0
4316,-503,-492,66,-65,3,2024-01-24 14:32:04,0.0
4287,-458,-474,21,-59,6,2024-01-24 14:32:04,0.0
4339,-412,-346,-2,-120,6,2024-01-24 14:32:04,0.0
4333,-382,-450,-33,-121,33,2024-01-24 14:32:04,0.0
4329,-459,-471,-86,-105,55,2024-01-24 14:32:04,0.0
4291,-381,-548,-68,-57,51,2024-01-24 14:32:04,0.0
4287,-384,-442,-117,-25,42,2024-01-24 14:32:04,0.0
4320,-390,-523,-135,-79,31,2024-01-24 14:32:04,0.0
4291,-351,-470,-110,-112,27,2024-01-24 14:32:04,0.0
4303,-437,-530,-147,-97,25,2024-01-24 14:32:04,0.0
4319,-378,-460,-136,-104,18,2024-01-24 14:32:04,0.0
4377,-448,-619,-153,-29,0,2024-01-24 14:32:04,0.0
4248,-408,-595,-124,-29,10,2024-01-24 14:32:04,0.0
4271,-370,-628,-91,-62,31,2024-01-24 14:32:04,0.0
4379,-422,-654,-96,29,6,2024-01-24 14:32:04,0.0
4229,-375,-645,-92,-15,-1,2024-01-24 14:32:04,0.0
4308,-469,-629,-48,-18,12,2024-01-24 14:32:04,0.0
4258,-353,-583,-94,-21,16,2024-01-24 14:32:05,0.0
4265,-396,-565,-118,-61,17,2024-01-24 14:32:05,0.0
4335,-446,-594,-114,-72,-2,2024-01-24 14:32:05,0.0
4257,-472,-614,-58,-82,-13,2024-01-24 14:32:05,0.0
4346,-491,-629,12,-69,-3,2024-01-24 14:32:05,0.0
4332,-449,-679,58,8,-15,2024-01-24 14:32:05,0.0
4245,-461,-568,87,46,-20,2024-01-24 14:32:05,0.0
4295,-411,-603,120,10,-4,2024-01-24 14:32:05,0.0
4296,-384,-554,81,42,2,2024-01-24 14:32:05,0.0
4299,-347,-518,46,23,-3,2024-01-24 14:32:05,0.0
4321,-387,-532,18,22,-8,2024-01-24 14:32:05,0.0
4271,-355,-546,-49,-16,-13,2024-01-24 14:32:05,0.0
4257,-383,-551,-83,-49,-1,2024-01-24 14:32:05,
4316,-347,-546,-119,-6,1,2024-01-24 14:32:05,0.0
4274,-431,-531,-154,-23,19,2024-01-24 14:32:05,0.0
4276,-323,-585,-223,-14,21,2024-01-24 14:32:05,0.0
4310,-469,-590,-247,-51,38,2024-01-24 14:32:05,0.0
4239,-513,-502,-209,-63,17,2024-01-24 14:32:05,0.0
4307,-528,-551,-154,-139,-4,2024-01-24 14:32:06,0.0
4319,-535,-594,-76,-139,2,2024-01-24 14:32:06,0.0
4367,-433,-633,-32,-55,-2,2024-01-24 14:32:06,0.0
4260,-481,-545,-25,-85,20,2024-01-24 14:32:06,0.0
4347,-431,-688,-16,-18,13,2024-01-24 14:32:06,0.0
4238,-407,-551,-14,12,17,2024-01-24 14:32:06,0.0
4289,-489,-557,-56,-80,34,2024-01-24 14:32:06,0.0
4240,-441,-621,-86,-56,12,2024-01-24 14:32:06,0.0
4356,-489,-625,-93,-89,45,2024-01-24 14:32:06,0.0
4228,-599,-615,-75,-96,52,2024-01-24 14:32:06,0.0
4352,-594,-708,51,-87,38,2024-01-24 14:32:06,0.0
4252,-343,-556,-59,-27,8,2024-01-24 14:32:55,0.0
4318,-358,-612,-74,7,1,2024-01-24 14:32:55,0.0
4278,-385,-577,-72,-23,3,2024-01-24 14:32:55,0.0
4294,-407,-608,-53,-8,4,2024-01-24 14:32:55,0.0
4278,-400,-594,-36,-13,4,2024-01-24 14:32:55,0.0
4272,-389,-614,-28,2,10,2024-01-24 14:32:55,0.0
4340,-410,-592,-40,-17,8,2024-01-24 14:32:55,0.0
4285,-323,-581,-55,8,3,2024-01-24 14:32:56,0.0
4305,-383,-607,-71,1,3,2024-01-24 14:32:56,0.0
4319,-338,-549,-61,6,5,2024-01-24 14:32:56,0.0
4315,-336,-575,-91,32,4,2024-01-24 14:32:56,0.0
4279,-360,-566,-92,-17,8,2024-01-24 14:32:56,0.0
4308,-352,-591,-106,0,6,2024-01-24 14:32:56,0.0
4253,-355,-494,-104,5,10,2024-01-24 14:32:56,0.0
4350,-362,-599,-97,-27,19,2024-01-24 14:32:56,0.0
4329,-318,-536,-99,22,-3,2024-01-24 14:32:56,0.0
4278,-327,-542,-123,-62,13,2024-01-24 14:32:56,0.0
4318,-361,-457,-106,-94,-1,2024-01-24 14:32:56,0.0
4283,-353,-547,-60,-117,32,2024-01-24 14:32:56,0.0
4307,-328,-545,-52,-65,33,2024-01-24 14:32:56,0.0
4310,-357,-574,-84,-103,27,2024-01-24 14:32:56,0.0
4345,-417,-576,-82,-43,18,2024-01-24 14:32:56,0.0
4307,-278,-525,-86,-34,3,2024-01-24 14:32:56,0.0
4291,-440,-629,-121,-85,15,2024-01-24 14:32:56,0.0
4308,-449,-652,3,-62,13,2024-01-24 14:32:56,0.0
4353,-344,-602,18,4,0,2024-01-24 14:32:57,0.0
4248,-346,-597,-12,-61,-2,2024-01-24 14:32:57,0.0
4340,-370,-625,-3,-54,-1,2024-01-24 14:32:57,0.0
4293,-323,-673,3,-5,-5,2024-01-24 14:32:57,0.0
4306,-317,-579,-19,-25,-3,2024-01-24 14:32:57,0.0
4335,-308,-622,-43,-15,-11,2024-01-24 14:32:57,0.0
4256,-317,-545,-45,-19,-7,2024-01-24 14:32:57,0.0
4291,-307,-619,-42,-32,5,2024-01-24 14:32:57,0.0
4335,-272,-631,-43,-31,7,2024-01-24 14:32:57,0.0
4295,-313,-597,-49,-20,10,2024-01-24 14:32:57,0.0
4297,-303,-632,-60,-3,4,2024-01-24 14:32:57,0.0
4272,-331,-605,-35,-38,10,2024-01-24 14:32:57,0.0
4308,-341,-628,-30,-37,11,2024-01-24 14:32:57,0.0
4319,-312,-628,-25,-29,10,2024-01-24 14:32:57,0.0
4280,-319,-620,-38,-37,8,2024-01-24 14:32:57,0.0
4298,-360,-636,-35,-41,9,2024-01-24 14:32:57,0.0
4309,-302,-596,-33,-30,5,2024-01-24 14:32:57,0.0
4326,-327,-626,-28,-50,10,2024-01-24 14:32:58,0.0
4290,-284,-660,-38,-14,6,2024-01-24 14:32:58,0.0
4294,-303,-627,-56,-10,10,2024-01-24 14:32:58,0.0
4280,-315,-631,-51,-9,8,2024-01-24 14:32:58,0.0
4300,-354,-624,-42,-25,10,2024-01-24 14:32:58,0.0
4305,-319,-656,-57,-1,6,2024-01-24 14:32:58,0.0
4304,-304,-570,-37,-16,14,2024-01-24 14:32:58,0.0
4325,-318,-636,-46,-2,6,2024-01-24 14:32:58,0.0
4296,-338,-614,-39,-22,6,2024-01-24 14:32:58,0.0
4328,-296,-592,-44,-10,8,2024-01-24 14:32:58,0.0
4298,-318,-636,-50,-11,4,2024-01-24 14:32:58,0.0
4306,-296,-637,-53,-15,3,2024-01-24 14:32:58,0.0
4289,-318,-600,-48,-19,10,2024-01-24 14:32:58,0.0
4334,-332,-555,-48,-10,13,2024-01-24 14:32:58,0.0
4310,-318,-588,-46,-18,11,2024-01-24 14:32:58,0.0
4325,-360,-613,-40,-31,15,2024-01-24 14:32:58,0.0
4340,-323,-604,-49,-2,13,2024-01-24 14:32:58,0.0
4285,-296,-548,-40,-30,9,2024-01-24 14:32:58,0.0
4312,-336,-587,-41,-27,11,2024-01-24 14:32:59,0.0
4287,-316,-576,-39,-18,15,2024-01-24 14:32:59,0.0
4344,-317,-565,-49,-9,12,2024-01-24 14:32:59,0.0
4271,-311,-582,-42,-22,10,2024-01-24 14:32:59,0.0
4327,-326,-549,-34,-18,13,2024-01-24 14:32:59,0.0
4297,-325,-550,-37,-28,13,2024-01-24 14:32:59,0.0
4304,-330,-544,-35,-19,17,2024-01-24 14:32:59,0.0
4309,-319,-532,-33,-24,18,2024-01-24 14:32:59,0.0
4278,-319,-533,-18,-20,20,2024-01-24 14:32:59,0.0
4328,-337,-542,-24,-40,21,2024-01-24 14:32:59,0.0
4290,-327,-530,-35,-48,14,2024-01-24 14:32:59,0.0
4317,-317,-573,-31,-38,21,2024-01-24 14:32:59,0.0
4300,-317,-529,-49,-22,12,2024-01-24 14:32:59,0.0
4339,-383,-572,-44,-15,12,2024-01-24 14:32:59,0.0
4298,-343,-571,-41,-14,10,2024-01-24 14:32:59,0.0
4293,-370,-566,-42,-32,12,2024-01-24 14:32:59,0.0
4358,-335,-563,-41,-14,9,2024-01-24 14:32:59,0.0
4295,-339,-480,-43,-12,11,2024-01-24 14:33:00,0.0
4279,-307,-519,-22,-34,20,2024-01-24 14:33:00,0.0
4342,-386,-563,-90,-27,1,2024-01-24 14:33:00,0.0
4284,-334,-570,-37,-8,5,2024-01-24 14:33:00,0.0
4300,-334,-512,-52,-22,10,2024-01-24 14:33:00,0.0
4342,-357,-608,-66,-15,2,2024-01-24 14:33:00,0.0
4302,-345,-526,-49,-36,8,2024-01-24 14:33:00,
4308,-333,-546,-57,-17,4,2024-01-24 14:33:00,0.0
4322,-348,-552,-53,-30,8,2024-01-24 14:33:00,0.0
4290,-305,-566,-48,-29,6,2024-01-24 14:33:00,0.0
4323,-328,-554,-47,-20,-2,2024-01-24 14:33:00,0.0
4303,-287,-542,-83,-19,-3,2024-01-24 14:33:00,0.0
4280,-320,-536,-82,-37,13,2024-01-24 14:33:00,0.0
4329,-286,-564,-86,-19,17,2024-01-24 14:33:00,0.0
4309,-331,-541,-82,-3,14,2024-01-24 14:33:00,0.0
4305,-321,-511,-73,4,17,2024-01-24 14:33:00,0.0
4264,-340,-487,-62,-62,23,2024-01-24 14:33:00,0.0
4323,-349,-551,-71,7,11,2024-01-24 14:33:01,0.0
4281,-325,-497,-95,9,10,2024-01-24 14:33:01,0.0
4345,-328,-576,-114,1,15,2024-01-24 14:33:01,0.0
4295,-309,-497,-126,-2,22,2024-01-24 14:33:01,0.0
4350,-370,-521,-133,6,13,2024-01-24 14:33:01,0.0
4304,-397,-491,-105,3,16,2024-01-24 14:33:01,0.0
4312,-396,-441,-46,-4,22,2024-01-24 14:33:01,0.0
4343,-350,-435,-15,13,13,2024-01-24 14:33:01,0.0
4346,-308,-486,-22,11,26,2024-01-24 14:33:01,0.0
4366,-274,-498,-37,36,2,2024-01-24 14:33:01,0.0
4352,-193,-438,-87,-9,-8,2024-01-24 14:33:01,0.0
4321,-269,-400,-77,27,-1,2024-01-24 14:33:01,0.0
4344,-243,-389,-79,13,2,2024-01-24 14:33:01,0.0
4330,-283,-328,-56,22,15,2024-01-24 14:33:01,0.0
4357,-264,-413,-52,8,27,2024-01-24 14:33:01,0.0
4256,-267,-353,-69,-24,28,2024-01-24 14:33:01,0.0
4276,-248,-396,-65,-72,68,2024-01-24 14:33:01,0.0
4355,-286,-539,-81,-78,57,2024-01-24 14:33:01,0.0
4331,-290,-526,-86,-34,64,2024-01-24 14:33:02,0.0
4362,-264,-601,-58,-79,54,2024-01-24 14:33:02,0.0
4282,-272,-551,-72,-50,81,2024-01-24 14:33:02,0.0
4378,-297,-592,-15,-34,79,2024-01-24 14:33:02,0.0
4283,-238,-603,-20,-76,90,2024-01-24 14:33:02,0.0
4319,-292,-588,20,-81,111,2024-01-24 14:33:02,0.0
4344,-393,-720,61,-69,82,2024-01-24 14:33:02,0.0
4318,-396,-656,85,-57,42,2024-01-24 14:33:02,0.0
4165,-322,-603,105,-80,6,2024-01-24 14:33:02,0.0
4289,-423,-656,69,-185,39,2024-01-24 14:33:02,0.0
4158,-437,-738,3,-182,12,2024-01-24 14:33:02,0.0
4241,-566,-608,25,-163,63,2024-01-24 14:33:02,0.0
4311,-559,-693,-52,-147,17,2024-01-24 14:33:02,0.0
4288,-703,-521,-62,-94,-18,2024-01-24 14:33:02,0.0
4227,-499,-541,-80,-80,-62,2024-01-24 14:33:02,0.0
4298,-655,-494,-114,-27,-53,2024-01-24 14:33:02,0.0
4361,-632,-506,-141,53,-74,2024-01-24 14:33:02,0.0
4294,-631,-534,-141,-100,-19,2024-01-24 14:33:03,0.0
4356,-628,-575,-90,-28,21,2024-01-24 14:33:03,0.0
4517,-523,-505,-81,-58,60,2024-01-24 14:33:03,0.0
4274,-447,-563,-216,2,63,2024-01-24 14:33:03,0.0
4285,-673,-488,-251,59,37,2024-01-24 14:33:03,0.0
4217,-736,-439,-168,116,-20,2024-01-24 14:33:03,0.0
4305,-346,-523,-232,20,-83,2024-01-24 14:33:03,0.0
4307,-537,-481,-254,74,-65,2024-01-24 14:33:03,0.0
4107,-472,-444,-175,37,-124,2024-01-24 14:33:03,0.0
4286,-413,-335,-131,42,-208,2024-01-24 14:33:03,0.0
4476,-48,-573,-186,1,-122,2024-01-24 14:33:03,0.0
4493,-198,-568,-181,52,-16,2024-01-24 14:33:03,0.0
4145,-258,-546,-164,-87,55,2024-01-24 14:33:03,0.0
4474,-275,-706,-107,-123,125,2024-01-24 14:33:03,0.0
4050,-451,-640,-47,30,113,2024-01-24 14:33:03,0.0
4192,-330,-712,-87,-187,9,2024-01-24 14:33:03,0.0
4401,-375,-624,121,63,7,2024-01-24 14:33:03,0.0
4300,-311,-544,44,-23,-68,2024-01-24 14:33:03,0.0
4322,-499,-568,140,3,-6,2024-01-24 14:33:04,0.0
4233,-195,-518,112,48,-18,2024-01-24 14:33:04,0.0
4351,-222,-459,10,34,-32,2024-01-24 14:33:04,0.0
4417,-343,-401,59,37,-8,2024-01-24 14:33:04,0.0
4379,-283,-509,137,-12,15,2024-01-24 14:33:04,0.0
4324,-259,-524,76,5,-15,2024-01-24 14:33:04,0.0
4318,-204,-473,36,60,-30,2024-01-24 14:33:04,0.0
4318,-270,-454,22,46,-18,2024-01-24 14:33:04,0.0
4281,-234,-353,14,-16,-37,2024-01-24 14:33:04,0.0
4440,-131,-352,32,-18,-5,2024-01-24 14:33:04,0.0
4243,-232,-437,-6,-14,-3,2024-01-24 14:33:04,0.0
4302,-385,-453,-83,-24,-36,2024-01-24 14:33:04,0.0
4403,-169,-376,42,-29,-1,2024-01-24 14:33:04,0.0
4223,-255,-375,-18,-29,1,2024-01-24 14:33:04,0.0
4337,-177,-336,1,-86,5,2024-01-24 14:33:04,0.0
4354,-98,-391,-28,-67,14,2024-01-24 14:33:04,0.0
4345,-191,-401,-82,-15,30,2024-01-24 14:33:04,0.0
4313,-262,-401,-107,-10,11,2024-01-24 14:33:05,0.0
4377,-309,-420,-86,-2,1,2024-01-24 14:33:05,0.0
4295,-292,-390,-52,-1,-16,2024-01-24 14:33:05,0.0
4337,-207,-342,-41,-21,-3,2024-01-24 14:33:05,0.0
4299,-202,-403,-40,-17,-4,2024-01-24 14:33:05,0.0
4363,-211,-440,-84,-33,19,2024-01-24 14:33:05,0.0
4281,-240,-368,-60,-17,30,2024-01-24 14:33:05,0.0
4336,-273,-355,-68,-27,20,2024-01-24 14:33:05,0.0
4361,-265,-440,-44,-22,18,2024-01-24 14:33:05,0.0
4349,-223,-433,-46,-26,16,2024-01-24 14:33:05,0.0
4344,-234,-382,-59,-28,18,2024-01-24 14:33:05,0.0
4337,-259,-400,-65,-27,21,2024-01-24 14:33:05,0.0
4309,-287,-409,-57,-31,16,2024-01-24 14:33:05,0.0
4335,-280,-401,-34,-31,14,2024-01-24 14:33:05,0.0
4315,-238,-413,-25,-37,11,2024-01-24 14:33:05,0.0
4321,-249,-379,-14,-36,3,2024-01-24 14:33:05,0.0
4351,-232,-407,-20,-34,5,2024-01-24 14:33:05,0.0
4352,-274,-371,0,-23,12,2024-01-24 14:33:05,0.0
4332,-242,-443,-21,-31,12,2024-01-24 14:33:06,0.0
4297,-232,-358,-3,-41,14,2024-01-24 14:33:06,
4329,-237,-428,-10,-37,17,2024-01-24 14:33:06,0.0
4313,-209,-442,-22,-47,24,2024-01-24 14:33:06,0.0
4301,-278,-414,-41,-39,22,2024-01-24 14:33:06,0.0
4317,-274,-434,-18,-45,24,2024-01-24 14:33:06,0.0
4329,-271,-399,-39,-35,22,2024-01-24 14:33:06,0.0
4295,-255,-425,-23,-71,29,2024-01-24 14:33:06,0.0
4332,-303,-460,-29,-70,26,2024-01-24 14:33:06,0.0
4334,-303,-479,-21,-49,22,2024-01-24 14:33:06,0.0
4313,-270,-468,-7,-46,22,2024-01-24 14:33:06,0.0
4332,-300,-411,-18,-51,32,2024-01-24 14:33:06,0.0
4294,-294,-435,-1,-76,24,2024-01-24 14:33:06,0.0
4356,-293,-473,-10,-49,22,2024-01-24 14:33:06,0.0
4285,-279,-475,0,-57,19,2024-01-24 14:33:06,0.0
4351,-314,-474,-16,-35,17,2024-01-24 14:33:06,0.0
4309,-299,-485,-35,-61,15,2024-01-24 14:33:06,0.0
4324,-276,-453,-32,-39,9,2024-01-24 14:33:07,0.0
4293,-274,-456,-34,-42,6,2024-01-24 14:33:07,0.0
4351,-331,-483,-30,-42,0,2024-01-24 14:33:07,0.0
4294,-298,-479,-45,-48,6,2024-01-24 14:33:07,0.0
4325,-300,-503,-38,-27,4,2024-01-24 14:33:07,0.0
4326,-285,-455,-45,-31,12,2024-01-24 14:33:07,0.0
4335,-309,-488,-44,-35,12,2024-01-24 14:33:07,0.0
4349,-285,-512,-67,-27,13,2024-01-24 14:33:07,0.0
4295,-287,-478,-66,-21,11,2024-01-24 14:33:07,0.0
4361,-300,-487,-59,-20,8,2024-01-24 14:33:07,0.0
4303,-280,-505,-42,-30,10,2024-01-24 14:33:07,0.0
4342,-258,-449,-53,-10,4,2024-01-24 14:33:07,0.0
4322,-341,-502,-40,-24,3,2024-01-24 14:33:07,0.0
4324,-252,-478,-31,-27,0,2024-01-24 14:33:07,0.0
4324,-237,-398,-34,-46,0,2024-01-24 14:33:07,0.0
4347,-341,-645,-69,1,-5,2024-01-24 14:33:07,0.0
4339,-262,-487,-32,-1,4,2024-01-24 14:33:07,0.0
4293,-240,-506,-56,12,11,2024-01-24 14:33:07,0.0
4333,-239,-432,-69,-10,10,2024-01-24 14:33:08,0.0
4329,-313,-418,-60,-3,-2,2024-01-24 14:33:08,0.0
4290,-253,-483,-35,-9,-9,2024-01-24 14:33:08,0.0
4341,-275,-436,-48,17,2,2024-01-24 14:33:08,0.0
4288,-235,-436,-61,-2,4,2024-01-24 14:33:08,0.0
4312,-269,-369,-47,-16,13,2024-01-24 14:33:08,0.0
4340,-261,-457,-64,-22,19,2024-01-24 14:33:08,0.0
4331,-303,-424,-36,-16,21,2024-01-24 14:33:08,0.0
4328,-263,-452,-59,-22,17,2024-01-24 14:33:08,0.0
4335,-299,-417,-49,-24,22,2024-01-24 14:33:08,0.0
4337,-289,-418,-50,-11,12,2024-01-24 14:33:08,0.0
4333,-293,-467,-45,-36,14,2024-01-24 14:33:08,0.0
4324,-279,-420,-44,-26,6,2024-01-24 14:33:08,0.0
4379,-264,-462,-57,-30,12,2024-01-24 14:33:08,0.0
4287,-296,-395,-58,-32,6,2024-01-24 14:33:08,0.0
4346,-231,-421,-73,-17,8,2024-01-24 14:33:08,0.0
4275,-257,-353,-60,-5,-7,2024-01-24 14:33:08,0.0
4368,-284,-413,-59,1,-16,2024-01-24 14:33:09,0.0
4316,-283,-437,-32,-21,-8,2024-01-24 14:33:09,0.0
4360,-288,-441,-29,-9,8,2024-01-24 14:33:09,0.0
4337,-256,-401,-30,-6,8,2024-01-24 14:33:09,0.0
4322,-224,-443,-44,-22,7,2024-01-24 14:33:09,0.0
4313,-300,-340,-47,-38,6,2024-01-24 14:33:09,0.0
4352,-235,-399,-51,-30,8,2024-01-24 14:33:09,0.0
4307,-295,-389,-43,-31,4,2024-01-24 14:33:09,0.0
4357,-227,-366,-46,-24,8,2024-01-24 14:33:09,0.0
4293,-274,-382,-41,-41,17,2024-01-24 14:33:09,0.0
4320,-291,-405,-25,-47,22,2024-01-24 14:33:09,0.0
4375,-231,-372,-51,-46,19,2024-01-24 14:33:09,0.0
4318,-212,-459,-84,-34,24,2024-01-24 14:33:09,0.0
4336,-289,-427,-64,-34,22,2024-01-24 14:33:09,0.0
4302,-299,-430,-52,-36,13,2024-01-24 14:33:09,0.0
4318,-303,-404,-42,-33,17,2024-01-24 14:33:09,0.0
4285,-272,-378,-36,-25,2,2024-01-24 14:33:09,0.0
4347,-247,-435,-28,-37,9,2024-01-24 14:33:10,0.0
4296,-261,-461,-49,-41,6,2024-01-24 14:33:10,0.0
4322,-246,-426,-43,-29,5,2024-01-24 14:33:10,0.0
4348,-265,-446,-51,-30,4,2024-01-24 14:33:10,0.0
4334,-256,-421,-47,-24,1,2024-01-24 14:33:10,0.0
4335,-293,-426,-46,-16,1,2024-01-24 14:33:10,0.0
4311,-236,-399,-46,-23,1,2024-01-24 14:33:10,0.0
4337,-267,-378,-47,-14,1,2024-01-24 14:33:10,0.0
4342,-243,-464,-41,-13,-4,2024-01-24 14:33:10,0.0
4327,-282,-373,-33,-12,4,2024-01-24 14:33:10,0.0
4345,-238,-402,-48,-27,6,2024-01-24 14:33:10,0.0
4310,-261,-421,-40,-19,-1,2024-01-24 14:33:10,0.0
4313,-203,-372,-47,-35,8,2024-01-24 14:33:10,0.0
4380,-298,-410,-48,-4,-4,2024-01-24 14:33:10,0.0
4312,-230,-356,-35,10,-5,2024-01-24 14:33:10,0.0
4329,-231,-394,-29,8,-8,2024-01-24 14:33:10,0.0
4293,-213,-331,-22,-13,9,2024-01-24 14:33:10,0.0
4309,-244,-362,-17,-28,3,2024-01-24 14:33:10,0.0
4339,-218,-364,-24,-26,3,2024-01-24 14:33:11,0.0
4344,-237,-366,-11,-34,2,2024-01-24 14:33:11,0.0
4338,-231,-329,-16,-16,5,2024-01-24 14:33:11,0.0
4361,-223,-361,-21,-23,4,2024-01-24 14:33:11,0.0
4329,-222,-358,-11,-19,4,2024-01-24 14:33:11,0.0
4324,-182,-330,-16,-8,1,2024-01-24 14:33:11,0.0
4339,-211,-314,-2,-10,0,2024-01-24 14:33:11,0.0
4357,-235,-347,1,-9,3,2024-01-24 14:33:11,0.0
4329,-188,-351,-4,-18,5,2024-01-24 14:33:11,0.0
4360,-212,-338,-17,-15,12,2024-01-24 14:33:11,0.0
4327,-214,-320,-17,-16,7,2024-01-24 14:33:11,0.0
4333,-197,-326,-11,-11,9,2024-01-24 14:33:11,0.0
4342,-198,-321,-22,-18,12,2024-01-24 14:33:11,0.0
4349,-212,-335,-26,-24,12,2024-01-24 14:33:11,0.0
4335,-173,-299,-26,-18,12,2024-01-24 14:33:11,
4359,-207,-321,-29,-26,16,2024-01-24 14:33:11,0.0
4339,-196,-313,-25,-37,21,2024-01-24 14:33:11,0.0
4345,-217,-309,-29,-36,14,2024-01-24 14:33:12,0.0
4337,-215,-308,-22,-21,26,2024-01-24 14:33:12,0.0
4335,-210,-360,-40,-29,29,2024-01-24 14:33:12,0.0
4339,-218,-326,-51,-42,36,2024-01-24 14:33:12,0.0
4309,-235,-359,-70,-49,41,2024-01-24 14:33:12,0.0
4344,-283,-351,-81,-44,56,2024-01-24 14:33:12,0.0
4336,-332,-392,-76,-50,54,2024-01-24 14:33:12,0.0
4332,-263,-393,-90,-71,53,2024-01-24 14:33:12,0.0
4300,-339,-404,-102,-51,50,2024-01-24 14:33:12,0.0
4330,-321,-426,-112,-61,39,2024-01-24 14:33:12,0.0
4273,-400,-419,-100,-48,37,2024-01-24 14:33:12,0.0
4366,-332,-446,-103,-43,23,2024-01-24 14:33:12,0.0
4328,-377,-386,-78,-9,7,2024-01-24 14:33:12,0.0
4289,-289,-442,-103,-39,3,2024-01-24 14:33:12,0.0
4356,-377,-414,-97,-19,9,2024-01-24 14:33:12,0.0
4287,-294,-467,-131,-48,3,2024-01-24 14:33:12,0.0
4323,-332,-423,-137,-37,9,2024-01-24 14:33:12,0.0
4355,-341,-385,-163,-36,6,2024-01-24 14:33:12,0.0
4298,-285,-369,-130,-45,10,2024-01-24 14:33:13,0.0
4346,-333,-372,-141,-52,13,2024-01-24 14:33:13,0.0
4300,-338,-344,-80,-24,-4,2024-01-24 14:33:13,0.0
4319,-245,-345,-114,-55,-4,2024-01-24 14:33:13,0.0
4308,-343,-398,-87,-62,22,2024-01-24 14:33:13,0.0
4331,-313,-372,-46,-37,0,2024-01-24 14:33:13,0.0
4275,-228,-367,-49,-57,6,2024-01-24 14:33:13,0.0
4370,-304,-339,-20,-23,12,2024-01-24 14:33:13,0.0
4316,-256,-428,-19,-48,7,2024-01-24 14:33:13,0.0
4355,-302,-393,-12,-41,17,2024-01-24 14:33:13,0.0
4305,-273,-387,13,-49,6,2024-01-24 14:33:13,0.0
4294,-284,-418,51,-27,11,2024-01-24 14:33:13,0.0
4332,-268,-425,52,-64,-5,2024-01-24 14:33:13,0.0
4319,-298,-422,59,-41,13,2024-01-24 14:33:13,0.0
4284,-242,-448,43,-62,4,2024-01-24 14:33:13,0.0
4336,-314,-457,41,-46,10,2024-01-24 14:33:13,0.0
4320,-237,-455,33,-40,-7,2024-01-24 14:33:13,0.0
4321,-291,-468,42,-32,-1,2024-01-24 14:33:14,0.0
4325,-283,-469,44,-28,-7,2024-01-24 14:33:14,0.0
4320,-299,-490,29,-30,-6,2024-01-24 14:33:14,0.0
4316,-290,-523,36,-43,0,2024-01-24 14:33:14,0.0
4340,-291,-456,41,-25,-4,2024-01-24 14:33:14,0.0
4285,-258,-454,32,-33,0,2024-01-24 14:33:14,0.0
4299,-257,-454,45,-32,3,2024-01-24 14:33:14,0.0
4300,-266,-484,28,-50,1,2024-01-24 14:33:14,0.0
4311,-276,-459,22,-39,4,2024-01-24 14:33:14,0.0
4369,-258,-458,5,-45,3,2024-01-24 14:33:14,0.0
4314,-282,-452,-2,-22,10,2024-01-24 14:33:14,0.0
4372,-277,-452,-4,-7,9,2024-01-24 14:33:14,0.0
4323,-245,-446,-14,-23,9,2024-01-24 14:33:14,0.0
4321,-298,-482,-29,-13,8,2024-01-24 14:33:14,0.0
4337,-291,-470,-25,-31,11,2024-01-24 14:33:14,0.0
4282,-262,-401,-35,-27,7,2024-01-24 14:33:14,0.0
4338,-291,-408,-20,-15,5,2024-01-24 14:33:14,0.0
4313,-278,-447,-28,-13,3,2024-01-24 14:33:14,0.0
4320,-297,-464,-20,-15,6,2024-01-24 14:33:15,0.0
4319,-275,-426,-23,-37,15,2024-01-24 14:33:15,0.0
4299,-332,-426,-38,-30,14,2024-01-24 14:33:15,0.0
4317,-283,-509,-48,-31,17,2024-01-24 14:33:15,0.0
4297,-314,-413,-53,-23,17,2024-01-24 14:33:15,0.0
4317,-323,-495,-53,-33,15,2024-01-24 14:33:15,0.0
4326,-318,-467,-59,-20,11,2024-01-24 14:33:15,0.0
4320,-279,-484,-59,-37,13,2024-01-24 14:33:15,0.0
4326,-310,-449,-68,-29,12,2024-01-24 14:33:15,0.0
4311,-298,-465,-77,-29,6,2024-01-24 14:33:15,0.0
4318,-309,-466,-72,-29,10,2024-01-24 14:33:15,0.0
4329,-307,-438,-80,-21,8,2024-01-24 14:33:15,0.0
4353,-265,-449,-66,-36,12,2024-01-24 14:33:15,0.0
4328,-308,-471,-68,-21,8,2024-01-24 14:33:15,0.0
4321,-310,-460,-67,-31,10,2024-01-24 14:33:15,0.0
4312,-297,-497,-57,-30,7,2024-01-24 14:33:15,0.0
4332,-261,-419,-59,-29,8,2024-01-24 14:33:16,0.0
4328,-261,-454,-47,-29,8,2024-01-24 14:33:16,0.0
4287,-295,-457,-45,-18,6,2024-01-24 14:33:16,0.0
4321,-272,-429,-49,-34,7,2024-01-24 14:33:16,0.0
4310,-276,-444,-45,-32,7,2024-01-24 14:33:16,0.0
4342,-255,-468,-50,-39,8,2024-01-24 14:33:16,0.0
4331,-289,-462,-35,-27,7,2024-01-24 14:33:16,0.0
4341,-252,-445,-31,-12,-2,2024-01-24 14:33:16,0.0
4335,-249,-433,-28,-27,1,2024-01-24 14:33:16,0.0
4332,-283,-443,-31,-14,8,2024-01-24 14:33:16,0.0
4315,-277,-485,-33,-38,12,2024-01-24 14:33:16,0.0
4305,-257,-436,-29,-36,4,2024-01-24 14:33:16,0.0
4339,-247,-407,-36,-26,10,2024-01-24 14:33:16,0.0
4324,-289,-448,-16,-34,15,2024-01-24 14:33:16,0.0
4323,-288,-462,-19,-35,14,2024-01-24 14:33:16,0.0
4309,-232,-431,-16,-39,10,2024-01-24 14:33:16,0.0
4322,-279,-466,-19,-48,16,2024-01-24 14:33:16,0.0
4304,-226,-422,-22,-55,18,2024-01-24 14:33:16,0.0
4307,-293,-493,-38,-65,18,2024-01-24 14:33:16,0.0
4333,-288,-466,-34,-51,15,2024-01-24 14:33:17,0.0
4344,-266,-489,-29,-22,5,2024-01-24 14:33:17,0.0
4282,-275,-472,-15,-7,12,2024-01-24 14:33:17,0.0
4296,-280,-479,-15,-12,0,2024-01-24 14:33:17,0.0
4311,-258,-467,-36,-24,1,2024-01-24 14:33:17,0.0
4296,-298,-488,-42,-20,9,2024-01-24 14:33:17,0.0
4326,-306,-471,-36,-26,8,2024-01-24 14:33:17,0.0
4312,-304,-489,-32,-21,8,2024-01-24 14:33:17,0.0
4273,-305,-461,-25,-19,10,2024-01-24 14:33:17,0.0
4307,-289,-468,-31,-25,7,2024-01-24 14:33:17,
4331,-291,-469,-40,-38,13,2024-01-24 14:33:17,0.0
4343,-304,-460,-48,-36,13,2024-01-24 14:33:17,0.0
4315,-301,-470,-49,-31,15,2024-01-24 14:33:17,0.0
4350,-302,-461,-44,-35,11,2024-01-24 14:33:17,0.0
4346,-288,-465,-40,-28,15,2024-01-24 14:33:17,0.0
4305,-299,-470,-35,-17,8,2024-01-24 14:33:17,0.0
4351,-282,-449,-39,-26,14,2024-01-24 14:33:17,0.0
4334,-299,-517,-31,-34,11,2024-01-24 14:33:18,0.0
4298,-302,-420,-41,-38,12,2024-01-24 14:33:18,0.0
4326,-285,-478,-42,-50,21,2024-01-24 14:33:18,0.0
4322,-326,-480,-40,-32,11,2024-01-24 14:33:18,0.0
4279,-268,-432,-35,-68,23,2024-01-24 14:33:18,0.0
4352,-334,-531,-63,-32,9,2024-01-24 14:33:18,0.0
4294,-275,-459,-45,-31,13,2024-01-24 14:33:18,0.0
4295,-280,-499,-55,-39,2,2024-01-24 14:33:18,0.0
4381,-285,-518,-67,-2,9,2024-01-24 14:33:18,0.0
4263,-314,-405,-27,-34,9,2024-01-24 14:33:18,0.0
4365,-300,-508,-51,-27,-12,2024-01-24 14:33:18,0.0
4286,-290,-488,-24,-13,-17,2024-01-24 14:33:18,0.0
4302,-286,-484,-36,-24,-11,2024-01-24 14:33:18,0.0
4357,-235,-429,-63,-10,8,2024-01-24 14:33:18,0.0
4298,-316,-505,-73,-17,23,2024-01-24 14:33:18,0.0
4328,-260,-448,-75,-15,16,2024-01-24 14:33:18,0.0
4295,-315,-448,-71,-17,3,2024-01-24 14:33:18,0.0
4339,-293,-469,-59,-24,2,2024-01-24 14:33:18,0.0
4293,-278,-464,-56,-42,7,2024-01-24 14:33:19,0.0
4338,-311,-452,-51,-12,9,2024-01-24 14:33:19,0.0
4318,-295,-440,-34,-37,19,2024-01-24 14:33:19,0.0
4321,-275,-473,-24,-4,1,2024-01-24 14:33:19,0.0
4312,-252,-464,-32,-35,4,2024-01-24 14:33:19,0.0
4317,-215,-451,-37,-32,19,2024-01-24 14:33:19,0.0
4284,-258,-394,-44,-45,10,2024-01-24 14:33:19,0.0
4391,-283,-516,-36,-15,10,2024-01-24 14:33:19,0.0
4355,-300,-419,-6,-6,-7,2024-01-24 14:33:19,0.0
4336,-212,-440,-15,-17,-4,2024-01-24 14:33:19,0.0
4307,-263,-440,-38,7,0,2024-01-24 14:33:19,0.0
4311,-263,-489,-42,-21,15,2024-01-24 14:33:19,0.0
4346,-273,-386,-37,-9,-2,2024-01-24 14:33:19,0.0
4326,-266,-446,-29,1,8,2024-01-24 14:33:19,0.0
4331,-290,-429,-24,-9,1,2024-01-24 14:33:19,0.0
4329,-274,-431,-29,-2,11,2024-01-24 14:33:19,0.0
4309,-261,-411,-34,-11,3,2024-01-24 14:33:19,0.0
4361,-318,-386,-21,-3,9,2024-01-24 14:33:20,0.0
4291,-284,-427,-22,-4,1,2024-01-24 14:33:20,0.0
4322,-274,-390,-34,-14,3,2024-01-24 14:33:20,0.0
4352,-293,-434,-28,4,0,2024-01-24 14:33:20,0.0
4326,-294,-382,-46,-14,9,2024-01-24 14:33:20,0.0
4347,-279,-391,-49,-13,16,2024-01-24 14:33:20,0.0
4296,-286,-425,-44,-8,5,2024-01-24 14:33:20,0.0
4329,-272,-395,-43,-34,7,2024-01-24 14:33:20,0.0
4270,-322,-421,-31,-37,-2,2024-01-24 14:33:20,0.0
4302,-259,-370,-44,-58,5,2024-01-24 14:33:20,0.0
4372,-281,-385,-45,-57,18,2024-01-24 14:33:20,0.0
4312,-293,-394,-33,-40,14,2024-01-24 14:33:20,0.0
4316,-279,-399,-40,-45,5,2024-01-24 14:33:20,0.0
4296,-270,-431,-46,-41,6,2024-01-24 14:33:20,0.0
4339,-250,-486,-56,-44,15,2024-01-24 14:33:20,0.0
4369,-239,-414,-65,-57,21,2024-01-24 14:33:20,0.0
4344,-243,-374,-76,-37,24,2024-01-24 14:33:20,0.0
4340,-255,-418,-64,-24,21,2024-01-24 14:33:21,0.0
4329,-259,-345,-57,-33,10,2024-01-24 14:33:21,0.0
4324,-278,-486,-57,-19,14,2024-01-24 14:33:21,0.0
4300,-288,-427,-74,-23,6,2024-01-24 14:33:21,0.0
4299,-271,-382,-64,-50,23,2024-01-24 14:33:21,0.0
4355,-261,-424,-77,-70,19,2024-01-24 14:33:21,0.0
4315,-277,-428,-64,-19,15,2024-01-24 14:33:21,0.0
4320,-305,-447,-45,-16,1,2024-01-24 14:33:21,0.0
4335,-330,-429,-38,-2,-2,2024-01-24 14:33:21,0.0
4327,-278,-434,-29,-10,-6,2024-01-24 14:33:21,0.0
4306,-271,-350,-28,-22,3,2024-01-24 14:33:21,0.0
4340,-245,-415,-37,-31,10,2024-01-24 14:33:21,0.0
4310,-252,-462,-52,-50,14,2024-01-24 14:33:21,0.0
4290,-332,-450,-47,-38,20,2024-01-24 14:33:21,0.0
4312,-264,-418,-50,-55,3,2024-01-24 14:33:21,0.0
4345,-250,-458,-51,-36,16,2024-01-24 14:33:21,0.0
4305,-268,-445,-51,-29,11,2024-01-24 14:33:21,0.0
4301,-288,-465,-47,-55,8,2024-01-24 14:33:21,0.0
4277,-262,-364,-39,-43,-19,2024-01-24 14:33:22,0.0
4442,-228,-480,-18,-29,-47,2024-01-24 14:33:22,0.0
4335,-236,-354,36,38,-49,2024-01-24 14:33:22,0.0
4310,-213,-449,41,21,-30,2024-01-24 14:33:22,0.0
4319,-157,-361,-1,-1,-13,2024-01-24 14:33:22,0.0
4315,-250,-375,-21,-17,-3,2024-01-24 14:33:22,0.0
4339,-215,-416,-22,-57,5,2024-01-24 14:33:22,0.0
4333,-264,-418,-23,-41,0,2024-01-24 14:33:22,0.0
4322,-253,-435,-22,-1,-10,2024-01-24 14:33:22,0.0
4363,-177,-469,-26,-7,5,2024-01-24 14:33:22,0.0
4321,-234,-380,-30,-9,24,2024-01-24 14:33:22,0.0
4333,-211,-421,-67,-21,31,2024-01-24 14:33:22,0.0
4291,-249,-358,-50,-36,39,2024-01-24 14:33:22,0.0
4298,-234,-389,-57,-57,32,2024-01-24 14:33:22,0.0
4350,-297,-415,-22,-67,25,2024-01-24 14:33:22,0.0
4323,-220,-435,-4,-72,18,2024-01-24 14:33:22,0.0
4338,-258,-438,-5,-89,27,2024-01-24 14:33:22,0.0
4311,-253,-442,-1,-84,21,2024-01-24 14:33:23,0.0
4327,-283,-433,0,-96,37,2024-01-24 14:33:23,0.0
4345,-280,-415,20,-89,25,2024-01-24 14:33:23,0.0
4356,-271,-456,20,-73,20,2024-01-24 14:33:23,0.0
4326,-294,-499,23,-84,15,2024-01-24 14:33:23,0.0
4309,-256,-476,9,-54,22,2024-01-24 14:33:23,
4297,-280,-501,15,-35,17,2024-01-24 14:33:23,0.0
4307,-261,-435,-5,-70,30,2024-01-24 14:33:23,0.0
4352,-286,-527,-23,-48,29,2024-01-24 14:33:23,0.0
4282,-305,-495,-29,-51,21,2024-01-24 14:33:23,0.0
4315,-336,-533,-45,-32,21,2024-01-24 14:33:23,0.0
4290,-304,-547,-21,-36,18,2024-01-24 14:33:23,0.0
4283,-288,-524,-30,-49,19,2024-01-24 14:33:23,0.0
4303,-335,-511,-26,-15,15,2024-01-24 14:33:23,0.0
4318,-320,-531,-24,-16,10,2024-01-24 14:33:23,0.0
4269,-326,-521,-25,-14,4,2024-01-24 14:33:23,0.0
4343,-330,-532,-20,4,2,2024-01-24 14:33:23,0.0
4329,-310,-561,-29,0,2,2024-01-24 14:33:23,0.0
4299,-305,-535,-34,-22,18,2024-01-24 14:33:24,0.0
4317,-308,-486,-55,-26,15,2024-01-24 14:33:24,0.0
4310,-328,-507,-50,-39,21,2024-01-24 14:33:24,0.0
4289,-322,-481,-36,-22,18,2024-01-24 14:33:24,0.0
4305,-318,-539,-26,-46,22,2024-01-24 14:33:24,0.0
4304,-334,-495,-12,-44,18,2024-01-24 14:33:24,0.0
4338,-309,-581,-6,-24,5,2024-01-24 14:33:24,0.0
4315,-328,-569,-6,-42,20,2024-01-24 14:33:24,0.0
4311,-275,-531,-34,-24,7,2024-01-24 14:33:24,0.0
4287,-299,-513,-41,-32,13,2024-01-24 14:33:24,0.0
4303,-333,-534,-35,-37,8,2024-01-24 14:33:24,0.0
4316,-367,-545,-30,-43,5,2024-01-24 14:33:24,0.0
4305,-309,-509,-25,-42,9,2024-01-24 14:33:24,0.0
4309,-329,-540,-32,-26,-1,2024-01-24 14:33:24,0.0
4304,-348,-510,-30,-29,9,2024-01-24 14:33:24,0.0
4350,-321,-519,-52,-16,7,2024-01-24 14:33:24,0.0
4320,-338,-483,-52,-24,14,2024-01-24 14:33:24,0.0
4314,-350,-491,-70,-44,15,2024-01-24 14:33:25,0.0
4323,-349,-551,-67,-34,7,2024-01-24 14:33:25,0.0
4328,-349,-583,-69,-14,7,2024-01-24 14:33:25,0.0
4303,-335,-551,-68,-17,7,2024-01-24 14:33:25,0.0
4340,-343,-485,-45,-11,7,2024-01-24 14:33:25,0.0
4301,-283,-565,-64,-29,8,2024-01-24 14:33:25,0.0
4305,-329,-519,-53,-44,11,2024-01-24 14:33:25,0.0
4339,-329,-544,-50,-30,10,2024-01-24 14:33:25,0.0
4322,-293,-565,-50,-24,7,2024-01-24 14:33:25,0.0
4298,-329,-524,-62,-43,6,2024-01-24 14:33:25,0.0
4361,-317,-473,-80,-38,3,2024-01-24 14:33:25,0.0
4289,-335,-541,-49,-26,5,2024-01-24 14:33:25,0.0
4326,-340,-572,-51,-24,-3,2024-01-24 14:33:25,0.0
4295,-338,-495,-38,-29,-2,2024-01-24 14:33:25,0.0
4337,-301,-572,-39,-10,-3,2024-01-24 14:33:25,0.0
4298,-278,-523,-58,-10,-1,2024-01-24 14:33:25,0.0
4276,-314,-535,-58,8,-4,2024-01-24 14:33:25,0.0
4352,-285,-430,-37,20,-17,2024-01-24 14:33:25,0.0
4288,-269,-436,0,14,-22,2024-01-24 14:33:26,0.0
4387,-250,-535,-24,1,-8,2024-01-24 14:33:26,0.0
4230,-274,-498,-40,-9,-3,2024-01-24 14:33:26,0.0
4329,-270,-450,-62,-12,9,2024-01-24 14:33:26,0.0
4300,-303,-459,-85,-21,15,2024-01-24 14:33:26,0.0
4340,-317,-495,-55,-32,20,2024-01-24 14:33:26,0.0
4376,-317,-468,-44,-41,19,2024-01-24 14:33:26,0.0
4268,-334,-467,-15,-38,9,2024-01-24 14:33:26,0.0
4386,-287,-459,-2,-43,13,2024-01-24 14:33:26,0.0
4277,-256,-462,-6,-52,8,2024-01-24 14:33:26,0.0
4333,-308,-479,-17,-30,13,2024-01-24 14:33:26,0.0
4329,-254,-440,-32,-52,21,2024-01-24 14:33:26,0.0
4304,-294,-477,-28,-28,14,2024-01-24 14:33:26,0.0
4309,-281,-522,-40,-22,16,2024-01-24 14:33:26,0.0
4333,-282,-481,-30,-21,8,2024-01-24 14:33:26,0.0
4349,-280,-511,-49,-48,14,2024-01-24 14:33:26,0.0
4304,-277,-548,-36,-53,24,2024-01-24 14:33:26,0.0
4291,-299,-484,-51,-25,28,2024-01-24 14:33:27,0.0
4271,-294,-545,-38,-41,31,2024-01-24 14:33:27,0.0
4315,-339,-501,-29,-33,23,2024-01-24 14:33:27,0.0
4327,-300,-422,-39,-26,6,2024-01-24 14:33:27,0.0
4332,-308,-443,-31,-15,16,2024-01-24 14:33:27,0.0
4299,-314,-496,-41,-46,21,2024-01-24 14:33:27,0.0
4293,-327,-498,-44,-31,10,2024-01-24 14:33:27,0.0
4322,-332,-520,-50,-24,25,2024-01-24 14:33:27,0.0
4307,-342,-538,-58,-48,20,2024-01-24 14:33:27,0.0
4309,-370,-575,-70,-87,29,2024-01-24 14:33:27,0.0
4282,-387,-570,-56,-59,28,2024-01-24 14:33:27,0.0
4347,-390,-530,-35,-68,36,2024-01-24 14:33:27,0.0
4352,-380,-585,-11,-68,13,2024-01-24 14:33:27,0.0
4333,-405,-554,-1,-26,-7,2024-01-24 14:33:27,0.0
4238,-353,-486,57,-50,-12,2024-01-24 14:33:27,0.0
4383,-297,-642,43,-66,-5,2024-01-24 14:33:27,0.0
4263,-309,-494,18,-53,-10,2024-01-24 14:33:27,0.0
4302,-306,-541,-20,-70,-16,2024-01-24 14:33:27,0.0
4275,-277,-514,42,-64,-4,2024-01-24 14:33:28,0.0
4295,-163,-577,-14,-95,-16,2024-01-24 14:33:28,0.0
4318,-340,-604,-19,-29,-4,2024-01-24 14:33:28,0.0
4317,-221,-678,-54,-54,14,2024-01-24 14:33:28,0.0
4329,-287,-562,-77,-7,23,2024-01-24 14:33:28,0.0
4293,-370,-622,-114,-21,28,2024-01-24 14:33:28,0.0
4236,-298,-564,-80,-88,27,2024-01-24 14:33:28,0.0
4360,-307,-684,-51,-24,61,2024-01-24 14:33:28,0.0
4227,-247,-572,-73,-87,76,2024-01-24 14:33:28,0.0
4285,-375,-698,-127,-44,54,2024-01-24 14:33:28,0.0
4319,-439,-658,-109,-45,40,2024-01-24 14:33:28,0.0
4329,-388,-694,-90,-16,19,2024-01-24 14:33:28,0.0
4162,-394,-583,-79,-33,6,2024-01-24 14:33:28,0.0
4333,-419,-673,-71,-36,4,2024-01-24 14:33:28,0.0
4262,-409,-591,-26,-66,-3,2024-01-24 14:33:28,0.0
4334,-330,-628,8,-36,-3,2024-01-24 14:33:28,0.0
4298,-377,-643,1,-53,11,2024-01-24 14:33:28,0.0
4309,-388,-692,4,-51,16,2024-01-24 14:33:29,
4342,-331,-687,-6,-22,20,2024-01-24 14:33:29,0.0
4246,-341,-663,-48,-12,23,2024-01-24 14:33:29,0.0
4291,-382,-626,-71,1,16,2024-01-24 14:33:29,0.0
4338,-429,-747,-45,9,-7,2024-01-24 14:33:29,0.0
4259,-336,-671,-42,60,-21,2024-01-24 14:33:29,0.0
4258,-332,-566,-54,9,10,2024-01-24 14:33:29,0.0
4319,-380,-681,-87,13,6,2024-01-24 14:33:29,0.0
4218,-420,-618,-89,-20,15,2024-01-24 14:33:29,0.0
4318,-410,-599,-65,-56,4,2024-01-24 14:33:29,0.0
4234,-252,-562,-36,41,-23,2024-01-24 14:33:29,0.0
4294,-351,-631,-40,-7,-13,2024-01-24 14:33:29,0.0
4322,-389,-558,-28,6,-34,2024-01-24 14:33:29,0.0
4313,-272,-646,-4,-46,-11,2024-01-24 14:33:29,0.0
4260,-236,-600,-27,-62,7,2024-01-24 14:33:29,0.0
4333,-262,-649,-96,-14,18,2024-01-24 14:33:29,0.0
4307,-412,-580,-94,-120,40,2024-01-24 14:33:29,0.0
4278,-300,-599,-75,-46,19,2024-01-24 14:33:30,0.0
4345,-312,-639,-66,-47,17,2024-01-24 14:33:30,0.0
4255,-357,-619,-71,-33,23,2024-01-24 14:33:30,0.0
4317,-337,-598,-68,-91,22,2024-01-24 14:33:30,0.0
4322,-344,-686,-65,-46,62,2024-01-24 14:33:30,0.0
4310,-327,-565,-44,-29,55,2024-01-24 14:33:30,0.0
4375,-513,-727,-25,-37,23,2024-01-24 14:33:30,0.0
4275,-331,-633,66,54,0,2024-01-24 14:33:30,0.0
4252,-348,-556,69,-61,4,2024-01-24 14:33:30,0.0
4285,-315,-558,80,-33,21,2024-01-24 14:33:30,0.0
4316,-399,-692,80,-23,-15,2024-01-24 14:33:30,0.0
4274,-196,-623,9,3,5,2024-01-24 14:33:30,0.0
4307,-288,-641,-87,0,30,2024-01-24 14:33:30,0.0
4238,-424,-616,-119,-60,49,2024-01-24 14:33:30,0.0
4226,-370,-697,-123,-47,13,2024-01-24 14:33:30,0.0
4364,-333,-619,-104,-113,17,2024-01-24 14:33:30,0.0
4234,-408,-670,-110,-88,16,2024-01-24 14:33:30,0.0
4294,-380,-644,-81,-121,34,2024-01-24 14:33:30,0.0
4257,-508,-688,-53,-109,55,2024-01-24 14:33:31,0.0
4334,-393,-701,-15,-97,36,2024-01-24 14:33:31,0.0
4277,-489,-611,0,-3,0,2024-01-24 14:33:31,0.0
4187,-441,-731,33,-53,-13,2024-01-24 14:33:31,0.0
4390,-489,-726,5,17,-25,2024-01-24 14:33:31,0.0
4305,-414,-726,29,-20,-6,2024-01-24 14:33:31,0.0
4265,-378,-677,54,12,23,2024-01-24 14:33:31,0.0
4293,-360,-681,-21,-39,32,2024-01-24 14:33:31,0.0
4222,-364,-740,-35,8,20,2024-01-24 14:33:31,0.0
4323,-375,-703,-77,-45,25,2024-01-24 14:33:31,0.0
4253,-370,-720,-93,-15,7,2024-01-24 14:33:31,0.0
4292,-441,-747,-78,-55,14,2024-01-24 14:33:31,0.0
4319,-346,-724,-96,-58,-1,2024-01-24 14:33:31,0.0
4259,-404,-731,-97,-37,22,2024-01-24 14:33:31,0.0
4322,-380,-722,-119,-15,20,2024-01-24 14:33:31,0.0
4318,-459,-669,-112,12,41,2024-01-24 14:33:31,0.0
4249,-375,-711,-86,-14,29,2024-01-24 14:33:31,0.0
4325,-430,-739,-98,-23,31,2024-01-24 14:33:32,0.0
4286,-386,-669,-85,-15,26,2024-01-24 14:33:32,0.0
4292,-409,-678,-73,-28,37,2024-01-24 14:33:32,0.0
4273,-371,-647,-87,-22,23,2024-01-24 14:33:32,0.0
4264,-473,-665,-79,-12,15,2024-01-24 14:33:32,0.0
4272,-417,-657,-58,-13,3,2024-01-24 14:33:32,0.0
4303,-421,-691,-74,15,-14,2024-01-24 14:33:32,0.0
4298,-436,-615,-33,11,-8,2024-01-24 14:33:32,0.0
4292,-369,-655,-40,29,-10,2024-01-24 14:33:32,0.0
4241,-397,-606,-39,31,-11,2024-01-24 14:33:32,0.0
4273,-382,-594,-37,-8,6,2024-01-24 14:33:32,0.0
4322,-424,-723,-57,-36,13,2024-01-24 14:33:32,0.0
4290,-384,-579,-17,-5,-1,2024-01-24 14:33:32,0.0
4349,-437,-698,-41,-30,17,2024-01-24 14:33:32,0.0
4262,-380,-649,-32,10,5,2024-01-24 14:33:32,0.0
4281,-406,-658,-52,-68,24,2024-01-24 14:33:32,0.0
4328,-380,-685,-52,-66,23,2024-01-24 14:33:32,0.0
4266,-429,-679,-61,-41,18,2024-01-24 14:33:32,0.0
4318,-438,-641,-32,-39,18,2024-01-24 14:33:33,0.0
4288,-367,-631,-40,8,8,2024-01-24 14:33:33,0.0
4300,-414,-638,-25,-6,8,2024-01-24 14:33:33,0.0
4296,-378,-641,-36,21,-5,2024-01-24 14:33:33,0.0
4237,-427,-601,-50,13,-9,2024-01-24 14:33:33,0.0
4346,-346,-620,-67,-13,12,2024-01-24 14:33:33,0.0
4283,-378,-556,-84,9,20,2024-01-24 14:33:33,0.0
4294,-430,-600,-99,11,24,2024-01-24 14:33:33,0.0
4298,-400,-617,-95,-17,15,2024-01-24 14:33:33,0.0
4330,-406,-591,-86,-29,13,2024-01-24 14:33:33,0.0
4278,-389,-610,-78,-38,12,2024-01-24 14:33:33,0.0
4323,-453,-591,-70,-82,22,2024-01-24 14:33:33,0.0
4284,-471,-670,-40,-52,13,2024-01-24 14:33:33,0.0
4327,-394,-643,-24,-57,13,2024-01-24 14:33:33,0.0
4296,-430,-668,-21,-74,26,2024-01-24 14:33:33,0.0
4301,-458,-639,-10,-64,37,2024-01-24 14:33:33,0.0
4278,-438,-681,-4,-100,27,2024-01-24 14:33:33,0.0
4293,-448,-759,9,-70,4,2024-01-24 14:33:34,0.0
4289,-425,-662,-3,-34,-2,2024-01-24 14:33:34,0.0
4267,-409,-730,-6,-35,-10,2024-01-24 14:33:34,0.0
4320,-378,-691,0,-29,-3,2024-01-24 14:33:34,0.0
4240,-383,-691,-22,-18,-2,2024-01-24 14:33:34,0.0
4294,-392,-632,-42,-54,-2,2024-01-24 14:33:34,0.0
4292,-404,-615,-29,-43,-10,2024-01-24 14:33:34,0.0
4293,-385,-652,-36,-2,-11,2024-01-24 14:33:34,0.0
4284,-365,-681,-28,6,-10,2024-01-24 14:33:34,0.0
4298,-383,-645,-49,-12,-6,2024-01-24 14:33:34,0.0
4310,-437,-611,-25,13,-29,2024-01-24 14:33:34,0.0
4285,-394,-651,-10,9,-28,2024-01-24 14:33:34,0.0
4311,-344,-632,-16,-15,-32,2024-01-24 14:33:34,0.0
4332,-323,-598,-51,33,11,2024-01-24 14:33:34,
4181,-349,-566,-42,-35,41,2024-01-24 14:33:34,0.0
4317,-382,-608,-80,-47,45,2024-01-24 14:33:34,0.0
4248,-401,-646,-53,-101,55,2024-01-24 14:33:34,0.0
4310,-388,-611,-63,-61,41,2024-01-24 14:33:34,0.0
4195,-427,-674,-52,-69,28,2024-01-24 14:33:35,0.0
4368,-446,-665,-17,-106,15,2024-01-24 14:33:35,0.0
4271,-379,-663,1,-56,7,2024-01-24 14:33:35,0.0
4300,-372,-695,-29,-44,2,2024-01-24 14:33:35,0.0
4335,-375,-676,-22,-1,-5,2024-01-24 14:33:35,0.0
4356,-339,-693,-69,38,8,2024-01-24 14:33:35,0.0
4248,-381,-651,-67,7,12,2024-01-24 14:33:35,0.0
4357,-356,-665,-111,17,-2,2024-01-24 14:33:35,0.0
4250,-394,-661,-87,-37,25,2024-01-24 14:33:35,0.0
4279,-411,-595,-77,-31,24,2024-01-24 14:33:35,0.0
4282,-402,-685,-57,-56,26,2024-01-24 14:33:35,0.0
4297,-387,-633,-30,-63,22,2024-01-24 14:33:35,0.0
4253,-439,-629,-12,-82,35,2024-01-24 14:33:35,0.0
4249,-406,-637,-6,-65,28,2024-01-24 14:33:35,0.0
4269,-441,-653,7,-60,21,2024-01-24 14:33:35,0.0
4298,-428,-706,4,-45,15,2024-01-24 14:33:35,0.0
4211,-445,-726,-19,-57,26,2024-01-24 14:33:35,0.0
4305,-458,-712,-40,-60,25,2024-01-24 14:33:36,0.0
4235,-458,-746,-49,-53,25,2024-01-24 14:33:36,0.0
4365,-510,-784,-53,-38,25,2024-01-24 14:33:36,0.0
4259,-391,-753,-60,26,20,2024-01-24 14:33:36,0.0
4219,-387,-672,-53,-10,38,2024-01-24 14:33:36,0.0
4320,-432,-707,-56,-19,34,2024-01-24 14:33:36,0.0
4318,-443,-757,-88,23,-20,2024-01-24 14:33:36,0.0
4279,-409,-688,-127,24,-7,2024-01-24 14:33:36,0.0
4252,-409,-683,-92,-31,20,2024-01-24 14:33:36,0.0
4266,-422,-651,-120,20,11,2024-01-24 14:33:36,0.0
4288,-472,-687,-99,5,13,2024-01-24 14:33:36,0.0
4293,-476,-760,-95,39,-3,2024-01-24 14:33:36,0.0
4230,-406,-495,-62,124,-4,2024-01-24 14:33:36,0.0
4277,-476,-514,-12,88,-35,2024-01-24 14:33:36,0.0
4255,-347,-483,-30,2,-14,2024-01-24 14:33:36,0.0
4298,-442,-599,-33,-71,-1,2024-01-24 14:33:36,0.0
4242,-369,-563,-49,-69,-13,2024-01-24 14:33:36,0.0
4310,-356,-581,-69,-104,20,2024-01-24 14:33:37,0.0
4253,-440,-633,-80,-70,9,2024-01-24 14:33:37,0.0
4379,-344,-562,-85,-48,9,2024-01-24 14:33:37,0.0
4254,-424,-609,-87,-32,17,2024-01-24 14:33:37,0.0
4266,-356,-652,-123,-68,18,2024-01-24 14:33:38,0.0
4292,-457,-624,-103,-55,23,2024-01-24 14:33:38,0.0
4302,-390,-589,-92,-41,1,2024-01-24 14:33:38,0.0
4320,-384,-579,-52,-20,8,2024-01-24 14:33:38,0.0
4321,-437,-568,-33,26,-4,2024-01-24 14:33:38,0.0
4251,-381,-486,-28,-21,9,2024-01-24 14:33:38,0.0
4330,-401,-578,-39,-37,16,2024-01-24 14:33:38,0.0
4252,-398,-618,-33,-68,24,2024-01-24 14:33:38,0.0
4318,-394,-611,-16,-52,22,2024-01-24 14:33:38,0.0
4214,-529,-622,-93,4,13,2024-01-24 14:33:39,0.0
4262,-544,-653,-47,-30,5,2024-01-24 14:33:39,0.0
4254,-505,-669,-45,-12,-2,2024-01-24 14:33:39,0.0
4336,-546,-736,-37,-46,-9,2024-01-24 14:33:39,0.0
4241,-509,-722,-33,9,-22,2024-01-24 14:33:39,0.0
4206,-472,-605,-26,-74,3,2024-01-24 14:33:39,0.0
4274,-458,-659,-32,-140,15,2024-01-24 14:33:39,0.0
4344,-590,-680,13,-61,8,2024-01-24 14:33:39,0.0
4261,-397,-687,-21,-74,14,2024-01-24 14:33:39,0.0
4250,-391,-588,-68,-50,19,2024-01-24 14:33:39,0.0
4332,-571,-607,-51,-42,4,2024-01-24 14:33:39,0.0
4309,-410,-608,-36,-42,-18,2024-01-24 14:33:39,0.0
4368,-462,-600,-18,8,19,2024-01-24 14:33:39,0.0
4210,-399,-611,-14,-14,-2,2024-01-24 14:33:39,0.0
4313,-493,-597,-9,-40,-8,2024-01-24 14:33:39,0.0
4275,-439,-600,12,-18,-4,2024-01-24 14:33:39,0.0
4294,-460,-656,15,-4,-16,2024-01-24 14:33:39,0.0
4282,-518,-675,31,-51,16,2024-01-24 14:33:40,0.0
4359,-479,-679,24,-26,13,2024-01-24 14:33:40,0.0
4276,-374,-587,-37,-52,27,2024-01-24 14:33:40,0.0
4252,-440,-676,-111,-84,37,2024-01-24 14:33:40,0.0
4223,-425,-700,-185,-26,37,2024-01-24 14:33:40,0.0
4257,-457,-674,-213,-80,57,2024-01-24 14:33:40,0.0
4305,-448,-747,-191,-25,37,2024-01-24 14:33:40,0.0
4231,-437,-674,-218,-54,27,2024-01-24 14:33:40,0.0
4291,-325,-771,-261,-2,26,2024-01-24 14:33:40,0.0
4276,-429,-712,-303,-40,27,2024-01-24 14:33:40,0.0
4330,-501,-652,-273,45,18,2024-01-24 14:33:40,0.0
4261,-396,-705,-298,25,26,2024-01-24 14:33:40,0.0
4250,-410,-691,-336,-1,43,2024-01-24 14:33:40,0.0
4312,-460,-667,-364,22,50,2024-01-24 14:33:40,0.0
4310,-346,-681,-412,-4,70,2024-01-24 14:33:40,0.0
4294,-421,-774,-458,-23,51,2024-01-24 14:33:40,0.0
4266,-434,-721,-491,-41,66,2024-01-24 14:33:40,0.0
4284,-399,-732,-509,-50,65,2024-01-24 14:33:40,0.0
4261,-435,-823,-540,-91,79,2024-01-24 14:33:41,0.0
4245,-426,-832,-539,-90,60,2024-01-24 14:33:41,0.0
4302,-425,-810,-535,-83,50,2024-01-24 14:33:41,0.0
4354,-439,-937,-463,-19,52,2024-01-24 14:33:41,0.0
4203,-403,-751,-429,32,25,2024-01-24 14:33:41,0.0
4218,-455,-868,-420,-44,3,2024-01-24 14:33:41,0.0
4226,-352,-828,-386,28,15,2024-01-24 14:33:41,0.0
4278,-441,-849,-316,-22,-18,2024-01-24 14:33:41,0.0
4272,-310,-916,-254,1,-14,2024-01-24 14:33:41,0.0
4307,-544,-923,-137,-9,19,2024-01-24 14:33:41,0.0
4275,-393,-796,6,61,-33,2024-01-24 14:33:41,0.0
4179,-383,-715,53,9,-10,2024-01-24 14:33:41,0.0
4301,-382,-862,145,-10,-11,2024-01-24 14:33:41,0.0
4252,-362,-844,156,-45,-10,2024-01-24 14:33:41,
4254,-378,-797,235,-1,-28,2024-01-24 14:33:41,0.0
4204,-383,-783,231,-3,-46,2024-01-24 14:33:41,0.0
4363,-389,-753,309,-24,-7,2024-01-24 14:33:41,0.0
4186,-264,-773,296,-14,-31,2024-01-24 14:33:42,0.0
4335,-408,-743,323,-74,-21,2024-01-24 14:33:42,0.0
4206,-251,-777,260,-86,-27,2024-01-24 14:33:42,0.0
4344,-356,-775,299,-66,-14,2024-01-24 14:33:42,0.0
4248,-161,-646,144,-84,-35,2024-01-24 14:33:42,0.0
4325,-305,-683,153,-80,-9,2024-01-24 14:33:42,0.0
4281,-259,-693,74,-56,-25,2024-01-24 14:33:42,0.0
4360,-324,-744,72,-12,-2,2024-01-24 14:33:42,0.0
4228,-240,-724,-15,-20,-20,2024-01-24 14:33:42,0.0
4329,-304,-674,-6,-22,18,2024-01-24 14:33:42,0.0
4260,-235,-775,-68,-13,10,2024-01-24 14:33:42,0.0
4273,-298,-766,-116,-41,22,2024-01-24 14:33:42,0.0
4336,-300,-758,-149,-11,29,2024-01-24 14:33:42,0.0
4233,-309,-762,-164,-15,28,2024-01-24 14:33:42,0.0
4283,-317,-799,-189,-20,29,2024-01-24 14:33:42,0.0
4270,-322,-705,-180,-10,27,2024-01-24 14:33:42,0.0
4283,-256,-724,-188,-6,13,2024-01-24 14:33:42,0.0
4334,-330,-735,-235,-21,15,2024-01-24 14:33:42,0.0
4139,-342,-766,-247,43,0,2024-01-24 14:33:43,0.0
4283,-343,-839,-292,-22,20,2024-01-24 14:33:43,0.0
4357,-334,-762,-266,-25,53,2024-01-24 14:33:43,0.0
4265,-314,-675,-273,-68,76,2024-01-24 14:33:43,0.0
4322,-266,-768,-203,-87,101,2024-01-24 14:33:43,0.0
4307,-479,-816,-151,-60,79,2024-01-24 14:33:43,0.0
4386,-456,-865,-48,-16,38,2024-01-24 14:33:43,0.0
4141,-360,-787,-36,84,-9,2024-01-24 14:33:43,0.0
4189,-257,-718,-100,5,-33,2024-01-24 14:33:43,0.0
4359,-252,-771,-117,-20,-14,2024-01-24 14:33:43,0.0
4305,-281,-762,-106,-49,18,2024-01-24 14:33:43,0.0
4270,-291,-713,-88,-1,8,2024-01-24 14:33:43,0.0
4235,-339,-857,-88,33,2,2024-01-24 14:33:43,0.0
4160,-442,-812,-23,29,-11,2024-01-24 14:33:43,0.0
4294,-316,-786,-16,-42,-12,2024-01-24 14:33:43,0.0
4342,-265,-701,-26,-64,2,2024-01-24 14:33:43,0.0
4269,-299,-691,-23,-43,29,2024-01-24 14:33:43,0.0
4296,-372,-776,20,-123,58,2024-01-24 14:33:44,0.0
4324,-408,-791,54,-5,2,2024-01-24 14:33:44,0.0
4245,-304,-652,65,-105,21,2024-01-24 14:33:44,0.0
4335,-223,-768,49,-73,-6,2024-01-24 14:33:44,0.0
4278,-240,-744,-30,-117,6,2024-01-24 14:33:44,0.0
4232,-311,-828,-34,-59,7,2024-01-24 14:33:44,0.0
4323,-424,-839,15,-42,17,2024-01-24 14:33:44,0.0
4203,-337,-774,46,-23,-2,2024-01-24 14:33:44,0.0
4278,-309,-793,26,-44,8,2024-01-24 14:33:44,0.0
4235,-357,-771,7,-26,3,2024-01-24 14:33:44,0.0
4325,-273,-819,0,10,-6,2024-01-24 14:33:44,0.0
4227,-311,-717,-2,-20,-5,2024-01-24 14:33:44,0.0
4245,-287,-850,-3,-10,-14,2024-01-24 14:33:44,0.0
4311,-279,-721,-30,-19,8,2024-01-24 14:33:44,0.0
4260,-347,-776,-54,-38,31,2024-01-24 14:33:44,0.0
4279,-340,-767,-51,-75,37,2024-01-24 14:33:44,0.0
4255,-338,-726,-65,-15,35,2024-01-24 14:33:44,0.0
4270,-377,-815,-65,-53,17,2024-01-24 14:33:45,0.0
4327,-385,-873,-79,11,7,2024-01-24 14:33:45,0.0
4254,-350,-786,-50,23,-1,2024-01-24 14:33:45,0.0
4212,-345,-848,-61,23,-14,2024-01-24 14:33:45,0.0
4250,-347,-804,-50,-8,-4,2024-01-24 14:33:45,0.0
4286,-312,-773,-51,-26,10,2024-01-24 14:33:45,0.0
4250,-294,-758,-65,-52,25,2024-01-24 14:33:45,0.0
4300,-285,-762,-100,-35,22,2024-01-24 14:33:45,0.0
4266,-394,-787,-87,-24,11,2024-01-24 14:33:45,0.0
4312,-283,-873,-81,-48,-10,2024-01-24 14:33:45,0.0
4275,-381,-705,-57,-20,-1,2024-01-24 14:33:45,0.0
4295,-274,-758,-42,-7,-13,2024-01-24 14:33:45,0.0
4279,-449,-777,-26,-12,-1,2024-01-24 14:33:45,0.0
4270,-356,-783,63,-14,-16,2024-01-24 14:33:45,0.0
4247,-310,-732,22,-19,-23,2024-01-24 14:33:45,0.0
4268,-356,-738,64,-17,-15,2024-01-24 14:33:45,0.0
4315,-338,-760,76,-10,-30,2024-01-24 14:33:45,0.0
4304,-241,-684,80,14,-12,2024-01-24 14:33:45,0.0
4298,-270,-719,34,-16,-9,2024-01-24 14:33:46,0.0
4241,-261,-718,-18,2,-8,2024-01-24 14:33:46,0.0
4318,-306,-733,-39,-31,-6,2024-01-24 14:33:46,0.0
4298,-287,-685,-35,-45,10,2024-01-24 14:33:46,0.0
4289,-299,-700,-32,-68,20,2024-01-24 14:33:46,0.0
4281,-343,-668,-24,-41,28,2024-01-24 14:33:46,0.0
4283,-367,-739,20,-33,13,2024-01-24 14:33:46,0.0
4260,-275,-682,6,-32,2,2024-01-24 14:33:46,0.0
4307,-311,-701,26,-7,7,2024-01-24 14:33:46,0.0
4275,-275,-752,3,-16,2,2024-01-24 14:33:46,0.0
4318,-283,-720,-1,-27,-3,2024-01-24 14:33:46,0.0
4296,-306,-723,-1,-16,4,2024-01-24 14:33:46,0.0
4258,-297,-761,-33,-17,3,2024-01-24 14:33:46,0.0
4268,-343,-738,-44,-23,13,2024-01-24 14:33:46,0.0
4279,-313,-712,-43,-27,5,2024-01-24 14:33:46,0.0
4269,-315,-751,-49,-23,10,2024-01-24 14:33:46,0.0
4304,-310,-791,-52,-22,6,2024-01-24 14:33:46,0.0
4270,-332,-676,-56,-22,10,2024-01-24 14:33:47,0.0
4294,-304,-762,-50,-24,12,2024-01-24 14:33:47,0.0
4291,-314,-728,-51,-25,10,2024-01-24 14:33:47,0.0
4238,-313,-728,-50,-45,18,2024-01-24 14:33:47,0.0
4311,-324,-729,-47,-27,11,2024-01-24 14:33:47,0.0
4269,-309,-737,-33,-39,8,2024-01-24 14:33:47,0.0
4304,-360,-783,-25,-54,6,2024-01-24 14:33:47,0.0
4258,-345,-817,-13,-15,-3,2024-01-24 14:33:47,0.0
4207,-378,-796,-5,12,-12,2024-01-24 14:33:47,0.0
4369,-293,-734,-11,-47,11,2024-01-24 14:33:47,
4213,-246,-692,-64,-40,19,2024-01-24 14:33:47,0.0
4345,-288,-727,-79,-86,35,2024-01-24 14:33:47,0.0
4253,-365,-766,-77,-92,21,2024-01-24 14:33:47,0.0
4264,-255,-719,-107,-136,46,2024-01-24 14:33:47,0.0
4361,-363,-788,-92,-61,27,2024-01-24 14:33:47,0.0
4206,-328,-763,-87,-50,29,2024-01-24 14:33:47,0.0
4286,-335,-783,-54,-93,25,2024-01-24 14:33:47,0.0
4337,-385,-784,-27,-48,-12,2024-01-24 14:33:48,0.0
4253,-271,-747,-13,-94,23,2024-01-24 14:33:48,0.0
4295,-359,-799,-12,-84,24,2024-01-24 14:33:48,0.0
4279,-356,-803,5,-51,1,2024-01-24 14:33:48,0.0
4296,-296,-840,-2,-57,10,2024-01-24 14:33:48,0.0
4277,-329,-790,10,-15,0,2024-01-24 14:33:48,0.0
4278,-286,-776,34,-10,1,2024-01-24 14:33:48,0.0
4338,-286,-791,42,15,-10,2024-01-24 14:33:48,0.0
4261,-365,-726,78,31,-34,2024-01-24 14:33:48,0.0
4314,-340,-858,120,40,-37,2024-01-24 14:33:48,0.0
4251,-296,-741,83,58,-50,2024-01-24 14:33:48,0.0
4284,-272,-736,127,48,-22,2024-01-24 14:33:48,0.0
4251,-339,-767,94,53,-25,2024-01-24 14:33:48,0.0
4281,-337,-802,92,74,-42,2024-01-24 14:33:48,0.0
4252,-304,-663,79,19,-18,2024-01-24 14:33:48,0.0
4252,-294,-752,28,-7,-18,2024-01-24 14:33:48,0.0
4333,-317,-795,0,10,-9,2024-01-24 14:33:48,0.0
4233,-302,-699,-49,-15,0,2024-01-24 14:33:48,0.0
4287,-288,-769,-90,12,13,2024-01-24 14:33:49,0.0
4274,-260,-653,-105,-34,28,2024-01-24 14:33:49,0.0
4292,-292,-635,-89,-67,35,2024-01-24 14:33:49,0.0
4288,-294,-643,-88,-15,17,2024-01-24 14:33:49,0.0
4259,-317,-703,-78,15,8,2024-01-24 14:33:49,0.0
4357,-323,-706,-82,48,-16,2024-01-24 14:33:49,0.0
4252,-328,-629,-53,25,-19,2024-01-24 14:33:49,0.0
4249,-307,-667,-68,8,-21,2024-01-24 14:33:49,0.0
4284,-253,-616,-46,-15,-4,2024-01-24 14:33:49,0.0
4311,-278,-622,-72,6,6,2024-01-24 14:33:49,0.0
4332,-243,-616,-82,-39,23,2024-01-24 14:33:49,0.0
4302,-233,-594,-101,-36,6,2024-01-24 14:33:49,0.0
4353,-296,-600,-60,-22,-11,2024-01-24 14:33:49,0.0
4302,-155,-615,-99,-30,21,2024-01-24 14:33:49,0.0
4296,-272,-546,-142,-45,32,2024-01-24 14:33:49,0.0
4318,-296,-538,-97,-16,11,2024-01-24 14:33:49,0.0
4330,-239,-622,-115,-46,19,2024-01-24 14:33:49,0.0
4277,-303,-606,-97,-39,20,2024-01-24 14:33:49,0.0
4280,-251,-665,-92,-81,32,2024-01-24 14:33:50,0.0
4311,-306,-650,-89,-79,47,2024-01-24 14:33:50,0.0
4311,-300,-602,-59,-54,37,2024-01-24 14:33:50,0.0
4311,-303,-654,-13,-53,28,2024-01-24 14:33:50,0.0
4246,-301,-667,-6,-53,4,2024-01-24 14:33:50,0.0
4354,-248,-556,23,-78,9,2024-01-24 14:33:50,0.0
4328,-261,-677,21,-30,5,2024-01-24 14:33:50,0.0
4293,-226,-624,17,-55,8,2024-01-24 14:33:50,0.0
4330,-267,-628,9,-34,14,2024-01-24 14:33:50,0.0
4255,-273,-631,11,-57,8,2024-01-24 14:33:50,0.0
4298,-277,-663,12,-24,5,2024-01-24 14:33:50,0.0
4288,-281,-728,13,-68,13,2024-01-24 14:33:50,0.0
4246,-233,-595,-7,-29,-5,2024-01-24 14:33:50,0.0
4334,-294,-623,-10,-28,18,2024-01-24 14:33:50,0.0
4280,-362,-751,10,-52,28,2024-01-24 14:33:50,0.0
4404,-328,-661,4,38,1,2024-01-24 14:33:50,0.0
4195,-419,-651,22,13,5,2024-01-24 14:33:50,0.0
4238,-253,-613,33,29,-33,2024-01-24 14:33:51,0.0
4407,-319,-740,13,-112,61,2024-01-24 14:33:51,0.0
4369,-357,-830,90,-52,85,2024-01-24 14:33:51,0.0
4154,-496,-693,126,-68,78,2024-01-24 14:33:51,0.0
4229,-359,-628,198,-52,86,2024-01-24 14:33:51,0.0
4286,-411,-655,185,-106,70,2024-01-24 14:33:51,0.0
4354,-399,-685,244,-41,37,2024-01-24 14:33:51,0.0
4198,-314,-583,151,-38,4,2024-01-24 14:33:51,0.0
4393,-299,-675,84,-87,31,2024-01-24 14:33:51,0.0
4223,-396,-653,55,74,-23,2024-01-24 14:33:51,0.0
4250,-649,-658,102,-91,-6,2024-01-24 14:33:51,0.0
4322,-641,-622,280,27,34,2024-01-24 14:33:51,0.0
4213,-455,-669,168,-93,-3,2024-01-24 14:33:51,0.0
4318,-717,-615,159,-49,-13,2024-01-24 14:33:51,0.0
4196,-495,-753,173,-130,-51,2024-01-24 14:33:51,0.0
4366,-754,-861,208,12,6,2024-01-24 14:33:51,0.0
4068,-474,-573,126,1,-97,2024-01-24 14:33:51,0.0
4320,-596,-646,178,-127,-79,2024-01-24 14:33:51,0.0
4282,-440,-736,120,-62,-113,2024-01-24 14:33:52,0.0
4531,-566,-744,119,-68,-53,2024-01-24 14:33:52,0.0
4392,-337,-882,128,-39,-28,2024-01-24 14:33:52,0.0
4015,-538,-645,41,-36,-12,2024-01-24 14:33:52,0.0
4367,-388,-842,98,-110,37,2024-01-24 14:33:52,0.0
4196,-450,-771,41,-12,-79,2024-01-24 14:33:52,0.0
4302,-325,-775,26,-95,-47,2024-01-24 14:33:52,0.0
4239,-433,-842,-3,-34,-63,2024-01-24 14:33:52,0.0
4281,-451,-797,27,17,-59,2024-01-24 14:33:52,0.0
4151,-281,-774,-14,39,-74,2024-01-24 14:33:52,0.0
4231,-252,-722,-18,20,-74,2024-01-24 14:33:52,0.0
4305,-277,-873,-44,18,-10,2024-01-24 14:33:52,0.0
4182,-377,-780,21,53,-8,2024-01-24 14:33:52,0.0
4294,-222,-780,32,17,-31,2024-01-24 14:33:52,0.0
4263,-164,-757,-21,89,-37,2024-01-24 14:33:52,0.0
4324,-95,-654,-18,31,-1,2024-01-24 14:33:52,0.0
4460,-181,-659,-112,102,-27,2024-01-24 14:33:52,0.0
4276,-302,-544,-128,24,-35,2024-01-24 14:33:53,0.0
4324,-159,-477,-98,46,-66,2024-01-24 14:33:53,0.0
4265,-122,-533,-148,48,-14,2024-01-24 14:33:53,0.0
4309,-215,-498,-264,78,-34,2024-01-24 14:33:53,0.0
4280,-134,-497,-276,46,4,2024-01-24 14:33:53,
4341,-236,-407,-304,49,-8,2024-01-24 14:33:53,0.0
4323,-209,-480,-407,-4,-27,2024-01-24 14:33:53,0.0
4191,-266,-406,-319,17,-15,2024-01-24 14:33:53,0.0
4353,-113,-375,-262,2,1,2024-01-24 14:33:53,0.0
4297,-198,-370,-238,-70,51,2024-01-24 14:33:53,0.0
4405,-261,-508,-179,-15,47,2024-01-24 14:33:53,0.0
4277,-99,-418,-193,31,30,2024-01-24 14:33:53,0.0
4372,-260,-377,-182,12,47,2024-01-24 14:33:53,0.0
4350,-121,-465,-193,30,-4,2024-01-24 14:33:53,0.0
4345,-159,-436,-201,22,8,2024-01-24 14:33:53,0.0
4313,-261,-458,-133,-9,13,2024-01-24 14:33:53,0.0
4284,-123,-429,-105,24,12,2024-01-24 14:33:53,0.0
4345,-285,-367,-42,6,27,2024-01-24 14:33:53,0.0
4287,-116,-432,-16,-14,56,2024-01-24 14:33:54,0.0
4374,-316,-412,2,-6,90,2024-01-24 14:33:54,0.0
4244,-330,-353,52,-27,76,2024-01-24 14:33:54,0.0
4496,-201,-462,64,-10,77,2024-01-24 14:33:54,0.0
4268,-140,-239,30,-10,39,2024-01-24 14:33:54,0.0
4459,-264,-353,9,15,17,2024-01-24 14:33:54,0.0
4312,-177,-272,-25,-6,20,2024-01-24 14:33:54,0.0
4359,-143,-294,-32,-30,19,2024-01-24 14:33:54,0.0
4348,-228,-364,-93,-33,19,2024-01-24 14:33:54,0.0
4338,-286,-387,-102,-33,24,2024-01-24 14:33:54,0.0
4294,-272,-297,-131,-33,5,2024-01-24 14:33:54,0.0
4406,-286,-362,-117,10,28,2024-01-24 14:33:54,0.0
4309,-222,-271,-115,-25,26,2024-01-24 14:33:54,0.0
4381,-281,-268,-71,57,23,2024-01-24 14:33:54,0.0
4406,-319,-268,-54,-9,-6,2024-01-24 14:33:54,0.0
4246,-325,-279,-59,24,-22,2024-01-24 14:33:54,0.0
4332,-228,-244,-22,-6,25,2024-01-24 14:33:54,0.0
4301,-162,-280,-128,22,3,2024-01-24 14:33:55,0.0
4367,-366,-301,-98,-96,47,2024-01-24 14:33:55,0.0
4359,-378,-225,-34,-49,-16,2024-01-24 14:33:55,0.0
4327,-318,-326,26,-2,-1,2024-01-24 14:33:55,0.0
4274,-255,-294,23,-66,29,2024-01-24 14:33:55,0.0
4326,-258,-376,12,-93,60,2024-01-24 14:33:55,0.0
4363,-324,-280,9,-11,76,2024-01-24 14:33:55,0.0
4385,-315,-251,-3,8,59,2024-01-24 14:33:55,0.0
4394,-396,-248,27,-3,51,2024-01-24 14:33:55,0.0
4252,-299,-252,38,-19,18,2024-01-24 14:33:55,0.0
4369,-394,-322,97,-77,48,2024-01-24 14:33:55,0.0
4347,-330,-241,93,-30,25,2024-01-24 14:33:55,0.0
4353,-217,-277,0,-40,9,2024-01-24 14:33:55,0.0
4366,-494,-308,24,-51,29,2024-01-24 14:33:55,0.0
4390,-241,-239,7,-4,-9,2024-01-24 14:33:55,0.0
4296,-251,-242,-31,-39,13,2024-01-24 14:33:55,0.0
4375,-334,-243,-45,-17,11,2024-01-24 14:33:55,0.0
4307,-246,-214,-104,-31,17,2024-01-24 14:33:56,0.0
4352,-389,-199,-112,-46,-33,2024-01-24 14:33:56,0.0
4320,-415,-314,-25,-44,-21,2024-01-24 14:33:56,0.0
4316,-308,-252,-4,-31,-31,2024-01-24 14:33:56,0.0
4352,-253,-274,-32,-48,-12,2024-01-24 14:33:56,0.0
4307,-290,-256,-36,-50,-14,2024-01-24 14:33:56,0.0
4328,-209,-323,-113,-26,-12,2024-01-24 14:33:56,0.0
4349,-377,-317,-112,5,-8,2024-01-24 14:33:56,0.0
4359,-308,-286,-74,13,-22,2024-01-24 14:33:56,0.0
4283,-279,-288,-58,62,-1,2024-01-24 14:33:56,0.0
4296,-231,-280,-89,-44,39,2024-01-24 14:33:56,0.0
4306,-339,-241,-97,-48,41,2024-01-24 14:33:56,0.0
4420,-340,-293,-93,-63,22,2024-01-24 14:33:56,0.0
4338,-285,-305,-76,-24,26,2024-01-24 14:33:56,0.0
4357,-342,-309,-105,49,9,2024-01-24 14:33:56,0.0
4283,-385,-289,-71,8,11,2024-01-24 14:33:56,0.0
4307,-290,-158,-43,-84,15,2024-01-24 14:33:56,0.0
4333,-344,-308,-40,-61,8,2024-01-24 14:33:56,0.0
4371,-302,-205,-50,-43,10,2024-01-24 14:33:57,0.0
4355,-327,-276,-45,3,1,2024-01-24 14:33:57,0.0
4372,-276,-402,-38,52,37,2024-01-24 14:33:57,0.0
4267,-264,-164,-73,3,33,2024-01-24 14:33:57,0.0
4434,-361,-195,-53,-91,9,2024-01-24 14:33:57,0.0
4325,-306,-266,-12,-57,-36,2024-01-24 14:33:57,0.0
4420,-326,-283,-12,-28,-31,2024-01-24 14:33:57,0.0
4247,-256,-257,-3,-22,-3,2024-01-24 14:33:57,0.0
4336,-232,-261,-61,-42,37,2024-01-24 14:33:57,0.0
4339,-396,-219,-76,-46,8,2024-01-24 14:33:57,0.0
4328,-367,-300,-42,-66,-8,2024-01-24 14:33:57,0.0
4344,-342,-252,3,-22,-7,2024-01-24 14:33:57,0.0
4303,-210,-236,14,-58,10,2024-01-24 14:33:57,0.0
4329,-284,-285,-32,-53,8,2024-01-24 14:33:57,0.0
4410,-317,-271,-38,-27,7,2024-01-24 14:33:57,0.0
4342,-228,-262,-51,4,8,2024-01-24 14:33:57,0.0
4327,-302,-332,-38,2,18,2024-01-24 14:33:57,0.0
4356,-295,-218,6,8,14,2024-01-24 14:33:58,0.0
4353,-227,-228,-10,3,-3,2024-01-24 14:33:58,0.0
4296,-267,-225,5,-17,0,2024-01-24 14:33:58,0.0
4287,-225,-220,-8,-58,10,2024-01-24 14:33:58,0.0
4396,-220,-286,-36,-54,24,2024-01-24 14:33:58,0.0
4317,-333,-231,-47,-13,15,2024-01-24 14:33:58,0.0
4352,-283,-259,-43,-74,1,2024-01-24 14:33:58,0.0
4363,-326,-305,-64,-69,-12,2024-01-24 14:33:58,0.0
4283,-289,-267,-24,-101,3,2024-01-24 14:33:58,0.0
4340,-359,-387,-16,-121,35,2024-01-24 14:33:58,0.0
4276,-345,-387,13,-67,17,2024-01-24 14:33:58,0.0
4342,-292,-323,-7,-113,30,2024-01-24 14:33:58,0.0
4331,-339,-438,20,-175,27,2024-01-24 14:33:58,0.0
4281,-318,-374,30,-162,6,2024-01-24 14:33:58,0.0
4333,-337,-381,46,-57,17,2024-01-24 14:33:58,0.0
4233,-261,-388,10,-45,24,2024-01-24 14:33:58,0.0
4524,-470,-517,41,-58,52,2024-01-24 14:33:58,0.0
4300,-245,-351,-12,118,-90,2024-01-24 14:33:58,
4235,-158,-361,-101,-28,-24,2024-01-24 14:33:59,0.0
4276,-241,-379,-100,28,-2,2024-01-24 14:33:59,0.0
4351,-245,-446,-76,-9,18,2024-01-24 14:33:59,0.0
4320,-285,-439,-79,9,14,2024-01-24 14:33:59,0.0
4301,-374,-370,-23,-98,38,2024-01-24 14:33:59,0.0
4337,-273,-397,31,-59,13,2024-01-24 14:33:59,0.0
4311,-277,-370,-6,-46,9,2024-01-24 14:33:59,0.0
4372,-269,-393,-13,-101,-2,2024-01-24 14:33:59,0.0
4328,-264,-391,-10,-87,17,2024-01-24 14:33:59,0.0
4403,-212,-307,-65,-98,19,2024-01-24 14:33:59,0.0
4232,-377,-447,-58,-30,27,2024-01-24 14:33:59,0.0
4300,-293,-372,-83,-41,24,2024-01-24 14:33:59,0.0
4337,-311,-460,-80,-11,1,2024-01-24 14:33:59,0.0
4314,-288,-340,-26,36,13,2024-01-24 14:33:59,0.0
4320,-174,-392,-59,-8,16,2024-01-24 14:33:59,0.0
4343,-281,-488,-144,-33,16,2024-01-24 14:33:59,0.0
4331,-302,-395,-116,-13,-9,2024-01-24 14:33:59,0.0
4238,-250,-364,-77,-32,16,2024-01-24 14:34:00,0.0
4410,-286,-406,-103,-44,13,2024-01-24 14:34:00,0.0
4300,-337,-380,-82,-22,-3,2024-01-24 14:34:00,0.0
4273,-261,-391,-54,-27,14,2024-01-24 14:34:00,0.0
4272,-256,-367,-60,-54,27,2024-01-24 14:34:00,0.0
4324,-342,-392,-44,-50,21,2024-01-24 14:34:00,0.0
4322,-262,-436,-41,-36,24,2024-01-24 14:34:00,0.0
4299,-356,-451,-53,-44,24,2024-01-24 14:34:00,0.0
4289,-410,-381,10,-53,23,2024-01-24 14:34:00,0.0
4335,-326,-485,3,-78,17,2024-01-24 14:34:00,0.0
4306,-332,-435,-5,-60,27,2024-01-24 14:34:00,0.0
4361,-367,-413,23,-38,19,2024-01-24 14:34:00,0.0
4349,-318,-505,13,-46,12,2024-01-24 14:34:00,0.0
4323,-384,-476,11,-36,16,2024-01-24 14:34:00,0.0
4342,-315,-442,13,-27,-11,2024-01-24 14:34:00,0.0
4286,-288,-445,-10,17,1,2024-01-24 14:34:00,0.0
4316,-314,-477,-51,-81,3,2024-01-24 14:34:00,0.0
4290,-354,-319,-67,-33,1,2024-01-24 14:34:00,0.0
4387,-376,-537,4,-75,5,2024-01-24 14:34:01,0.0
4268,-275,-496,-18,6,8,2024-01-24 14:34:01,0.0
4363,-329,-453,-18,-33,4,2024-01-24 14:34:01,0.0
4322,-321,-423,-45,0,-2,2024-01-24 14:34:01,0.0
4318,-317,-481,-51,-27,9,2024-01-24 14:34:01,0.0
4371,-304,-441,-25,0,5,2024-01-24 14:34:01,0.0
4310,-345,-469,-34,-29,-2,2024-01-24 14:34:01,0.0
4352,-285,-427,-27,-8,-5,2024-01-24 14:34:01,0.0
4312,-262,-437,-48,21,1,2024-01-24 14:34:01,0.0
4365,-265,-417,-58,-53,10,2024-01-24 14:34:01,0.0
4326,-314,-438,-47,-2,1,2024-01-24 14:34:01,0.0
4358,-277,-487,-57,-10,-9,2024-01-24 14:34:01,0.0
4288,-220,-402,-30,-12,0,2024-01-24 14:34:01,0.0
4351,-277,-381,-52,-33,8,2024-01-24 14:34:01,0.0
4308,-282,-402,-40,-27,0,2024-01-24 14:34:01,0.0
4340,-253,-451,-46,36,11,2024-01-24 14:34:01,0.0
4289,-236,-344,-57,-51,19,2024-01-24 14:34:01,0.0
4329,-341,-390,-78,-71,9,2024-01-24 14:34:02,0.0
4313,-295,-417,-53,-18,6,2024-01-24 14:34:02,0.0
4323,-218,-399,-47,-10,19,2024-01-24 14:34:02,0.0
4338,-251,-387,-64,-56,18,2024-01-24 14:34:02,0.0
4323,-341,-416,-70,-39,16,2024-01-24 14:34:02,0.0
4332,-272,-397,-24,20,16,2024-01-24 14:34:02,0.0
4319,-269,-399,-49,17,31,2024-01-24 14:34:02,0.0
4349,-435,-359,-24,14,12,2024-01-24 14:34:02,0.0
4324,-362,-450,5,-30,-5,2024-01-24 14:34:02,0.0
4315,-298,-408,-25,-26,0,2024-01-24 14:34:02,0.0
4334,-399,-394,-8,-39,23,2024-01-24 14:34:02,0.0
4324,-299,-445,-28,10,11,2024-01-24 14:34:02,0.0
4274,-315,-380,-59,-25,19,2024-01-24 14:34:02,0.0
4307,-386,-446,-64,-59,10,2024-01-24 14:34:02,0.0
4371,-340,-362,-48,-30,18,2024-01-24 14:34:02,0.0
4313,-379,-404,-41,-38,20,2024-01-24 14:34:02,0.0
4349,-355,-364,-41,-7,7,2024-01-24 14:34:02,0.0
4370,-324,-347,-33,-8,-8,2024-01-24 14:34:03,0.0
4337,-225,-342,-71,-37,-7,2024-01-24 14:34:03,0.0
4334,-295,-376,-88,31,-7,2024-01-24 14:34:03,0.0
4340,-235,-219,-90,-18,-8,2024-01-24 14:34:03,0.0
4362,-219,-391,-105,-17,-12,2024-01-24 14:34:03,0.0
4340,-235,-345,-84,-11,2,2024-01-24 14:34:03,0.0
4371,-283,-368,-98,-3,9,2024-01-24 14:34:03,0.0
4293,-231,-344,-120,-14,-2,2024-01-24 14:34:03,0.0
4391,-266,-367,-122,-34,14,2024-01-24 14:34:03,0.0
4304,-231,-307,-138,-6,-8,2024-01-24 14:34:03,0.0
4317,-255,-326,-134,-28,5,2024-01-24 14:34:03,0.0
4335,-198,-321,-132,15,1,2024-01-24 14:34:03,0.0
4309,-257,-245,-119,-6,6,2024-01-24 14:34:03,0.0
4324,-255,-360,-110,-21,6,2024-01-24 14:34:03,0.0
4359,-221,-304,-101,5,-1,2024-01-24 14:34:03,0.0
4339,-246,-305,-121,-21,5,2024-01-24 14:34:03,0.0
4337,-256,-294,-69,-28,14,2024-01-24 14:34:03,0.0
4271,-296,-358,-58,-30,26,2024-01-24 14:34:03,0.0
4330,-280,-321,-17,-36,32,2024-01-24 14:34:04,0.0
4337,-315,-278,2,-7,33,2024-01-24 14:34:04,0.0
4330,-361,-361,52,-59,13,2024-01-24 14:34:04,0.0
4272,-353,-368,70,-52,10,2024-01-24 14:34:04,0.0
4357,-370,-381,65,-105,14,2024-01-24 14:34:04,0.0
4312,-338,-361,68,-58,0,2024-01-24 14:34:04,0.0
4312,-349,-423,54,-37,6,2024-01-24 14:34:04,0.0
4395,-318,-324,48,-21,20,2024-01-24 14:34:04,0.0
4309,-284,-421,31,11,20,2024-01-24 14:34:04,0.0
4365,-302,-326,18,18,34,2024-01-24 14:34:04,0.0
4359,-244,-369,4,9,29,2024-01-24 14:34:04,0.0
4306,-342,-323,-4,-3,8,2024-01-24 14:34:04,0.0
4331,-297,-272,-35,-37,-34,2024-01-24 14:34:04,
4327,-229,-353,-45,-74,-38,2024-01-24 14:34:04,0.0
4297,-271,-401,-74,-30,-26,2024-01-24 14:34:04,0.0
4355,-255,-331,-30,-14,4,2024-01-24 14:34:04,0.0
4372,-207,-284,-16,10,9,2024-01-24 14:34:04,0.0
4289,-325,-299,-22,-38,3,2024-01-24 14:34:05,0.0
4435,-234,-286,-38,-58,-33,2024-01-24 14:34:05,0.0
4301,-207,-251,-23,-62,-25,2024-01-24 14:34:05,0.0
4347,-215,-337,-50,-192,-9,2024-01-24 14:34:05,0.0
4227,-222,-460,3,-104,-10,2024-01-24 14:34:05,0.0
4318,-236,-369,-34,-18,-19,2024-01-24 14:34:05,0.0
4340,-233,-426,2,-177,1,2024-01-24 14:34:05,0.0
4237,-208,-378,1,-73,1,2024-01-24 14:34:05,0.0
4323,-280,-422,-3,-70,-8,2024-01-24 14:34:05,0.0
4310,-232,-494,1,-23,6,2024-01-24 14:34:05,0.0
4333,-256,-420,13,-28,3,2024-01-24 14:34:05,0.0
4387,-185,-452,11,12,-10,2024-01-24 14:34:05,0.0
4318,-133,-430,-15,-60,-16,2024-01-24 14:34:05,0.0
4287,-183,-500,-85,-88,7,2024-01-24 14:34:05,0.0
4413,-234,-458,-111,-12,2,2024-01-24 14:34:05,0.0
4294,-158,-437,-103,-7,-6,2024-01-24 14:34:05,0.0
4290,-243,-496,-147,-35,23,2024-01-24 14:34:05,0.0
4350,-299,-462,-83,-57,36,2024-01-24 14:34:05,0.0
4294,-60,-502,-114,-45,14,2024-01-24 14:34:06,0.0
4300,-247,-412,-142,-51,52,2024-01-24 14:34:06,0.0
4353,-188,-483,-115,8,12,2024-01-24 14:34:06,0.0
4309,-188,-467,-109,-20,36,2024-01-24 14:34:06,0.0
4312,-149,-489,-127,-2,-8,2024-01-24 14:34:06,0.0
4439,-153,-428,-141,-26,1,2024-01-24 14:34:06,0.0
4224,-364,-395,-101,15,-17,2024-01-24 14:34:06,0.0
4337,-116,-452,-7,-106,41,2024-01-24 14:34:06,0.0
4288,-439,-466,10,-40,73,2024-01-24 14:34:06,0.0
4374,-169,-543,44,-74,35,2024-01-24 14:34:06,0.0
4318,-114,-491,2,-35,22,2024-01-24 14:34:06,0.0
4302,-159,-418,-42,-34,23,2024-01-24 14:34:06,0.0
4312,-244,-417,-57,-34,-8,2024-01-24 14:34:06,0.0
4428,-279,-523,-43,-42,-54,2024-01-24 14:34:06,0.0
4208,-255,-432,21,41,-32,2024-01-24 14:34:06,0.0
4294,-202,-427,63,19,-25,2024-01-24 14:34:06,0.0
4336,-272,-356,138,-62,16,2024-01-24 14:34:06,0.0
4259,-331,-412,215,-30,13,2024-01-24 14:34:07,0.0
4329,-197,-445,231,-61,28,2024-01-24 14:34:07,0.0
4357,-100,-493,159,-75,62,2024-01-24 14:34:07,0.0
4383,-137,-538,41,-56,49,2024-01-24 14:34:07,0.0
4329,-195,-572,-35,-72,80,2024-01-24 14:34:07,0.0
4293,-354,-477,-79,15,41,2024-01-24 14:34:07,0.0
4367,-174,-447,-145,-40,40,2024-01-24 14:34:07,0.0
4326,-300,-578,-220,39,38,2024-01-24 14:34:07,0.0
4358,-313,-445,-231,194,51,2024-01-24 14:34:07,0.0
4247,-302,-458,-247,70,20,2024-01-24 14:34:07,0.0
4353,-328,-360,-247,-35,25,2024-01-24 14:34:07,0.0
4296,-460,-422,-256,17,-12,2024-01-24 14:34:07,0.0
4305,-332,-314,-135,-17,19,2024-01-24 14:34:07,0.0
4314,-411,-341,-96,-6,20,2024-01-24 14:34:07,0.0
4309,-335,-353,22,-2,29,2024-01-24 14:34:07,0.0
4339,-250,-423,-3,-23,34,2024-01-24 14:34:07,0.0
4292,-285,-390,-43,-33,23,2024-01-24 14:34:07,0.0
4344,-323,-452,-48,-43,10,2024-01-24 14:34:08,0.0
4359,-245,-370,-83,-2,-34,2024-01-24 14:34:08,0.0
4274,-356,-321,-89,-51,-13,2024-01-24 14:34:08,0.0
4333,-418,-355,6,-15,-17,2024-01-24 14:34:08,0.0
4271,-326,-280,80,-23,-13,2024-01-24 14:34:08,0.0
4313,-378,-351,134,-101,-11,2024-01-24 14:34:08,0.0
4445,-235,-437,179,-6,-21,2024-01-24 14:34:08,0.0
4263,-193,-410,67,-40,-5,2024-01-24 14:34:08,0.0
4333,-212,-421,24,-22,11,2024-01-24 14:34:08,0.0
4357,-285,-364,-64,1,0,2024-01-24 14:34:08,0.0
4307,-284,-436,-63,-34,9,2024-01-24 14:34:08,0.0
4331,-289,-409,-72,10,-3,2024-01-24 14:34:08,0.0
4326,-300,-334,-66,0,12,2024-01-24 14:34:08,0.0
4343,-257,-350,-70,5,2,2024-01-24 14:34:08,0.0
4319,-267,-310,-76,0,8,2024-01-24 14:34:08,0.0
4351,-248,-318,-77,-7,3,2024-01-24 14:34:08,0.0
4352,-274,-356,-76,-3,3,2024-01-24 14:34:08,0.0
4306,-214,-358,-97,-21,0,2024-01-24 14:34:08,0.0
4319,-298,-363,-58,6,18,2024-01-24 14:34:09,0.0
4336,-272,-364,-66,-23,4,2024-01-24 14:34:09,0.0
4346,-266,-322,-49,-61,15,2024-01-24 14:34:09,0.0
4384,-285,-321,-42,13,-2,2024-01-24 14:34:09,0.0
4294,-225,-223,-57,-37,8,2024-01-24 14:34:09,0.0
4388,-322,-336,-53,-28,-2,2024-01-24 14:34:09,0.0
4313,-326,-320,-14,-47,0,2024-01-24 14:34:09,0.0
4340,-185,-341,-10,-40,6,2024-01-24 14:34:09,0.0
4354,-281,-324,-11,-32,14,2024-01-24 14:34:09,0.0
4313,-259,-359,-36,-36,6,2024-01-24 14:34:09,0.0
4313,-237,-298,-48,-25,-2,2024-01-24 14:34:09,0.0
4332,-251,-276,-31,-35,8,2024-01-24 14:34:09,0.0
4369,-207,-348,-39,17,12,2024-01-24 14:34:09,0.0
4350,-229,-297,-46,-18,8,2024-01-24 14:34:09,0.0
4340,-281,-334,-52,-26,17,2024-01-24 14:34:09,0.0
4327,-235,-274,-40,-20,12,2024-01-24 14:34:09,0.0
4344,-240,-334,-38,15,19,2024-01-24 14:34:09,0.0
4296,-269,-260,-23,-9,10,2024-01-24 14:34:09,0.0
4343,-243,-308,-47,-72,9,2024-01-24 14:34:10,0.0
4372,-222,-300,-55,-15,3,2024-01-24 14:34:10,0.0
4331,-283,-279,-69,-17,10,2024-01-24 14:34:10,0.0
4346,-258,-335,-67,-89,19,2024-01-24 14:34:10,0.0
4343,-292,-253,-51,-37,14,2024-01-24 14:34:10,0.0
4309,-252,-292,-28,-32,28,2024-01-24 14:34:10,0.0
4316,-286,-340,-17,-68,30,2024-01-24 14:34:10,0.0
4299,-256,-287,-28,-40,25,2024-01-24 14:34:10,
4374,-299,-332,-75,24,3,2024-01-24 14:34:10,0.0
4278,-283,-318,-54,-39,12,2024-01-24 14:34:10,0.0
4372,-250,-367,-59,-71,22,2024-01-24 14:34:10,0.0
4287,-270,-293,-48,-57,32,2024-01-24 14:34:10,0.0
4319,-261,-285,-55,-32,10,2024-01-24 14:34:10,0.0
4422,-310,-345,-47,-49,2,2024-01-24 14:34:10,0.0
4369,-327,-407,-27,14,-26,2024-01-24 14:34:10,0.0
4286,-285,-317,-9,11,8,2024-01-24 14:34:10,0.0
4321,-275,-341,-7,-3,3,2024-01-24 14:34:10,0.0
4327,-250,-378,-43,5,24,2024-01-24 14:34:11,0.0
4315,-299,-266,-44,-13,13,2024-01-24 14:34:11,0.0
4338,-239,-299,-18,-24,17,2024-01-24 14:34:11,0.0
4363,-260,-288,-47,-37,8,2024-01-24 14:34:11,0.0
4337,-251,-296,-54,-6,-1,2024-01-24 14:34:11,0.0
4372,-232,-288,-84,16,-14,2024-01-24 14:34:11,0.0
4331,-257,-254,-46,-23,8,2024-01-24 14:34:11,0.0
4352,-250,-282,-66,-2,-5,2024-01-24 14:34:11,0.0
4287,-315,-224,-31,-19,7,2024-01-24 14:34:11,0.0
4352,-214,-256,-26,-16,1,2024-01-24 14:34:11,0.0
4280,-288,-245,-21,-46,7,2024-01-24 14:34:11,0.0
4374,-284,-314,-29,-82,18,2024-01-24 14:34:11,0.0
4346,-218,-330,-47,-48,26,2024-01-24 14:34:11,0.0
4308,-249,-289,-52,-5,34,2024-01-24 14:34:11,0.0
4371,-248,-261,-83,-14,34,2024-01-24 14:34:11,0.0
4362,-304,-273,-76,-53,23,2024-01-24 14:34:11,0.0
4365,-318,-304,-53,-13,3,2024-01-24 14:34:11,0.0
4329,-273,-255,-52,-32,-1,2024-01-24 14:34:11,0.0
4313,-314,-292,-50,4,-11,2024-01-24 14:34:12,0.0
4362,-260,-307,-73,25,-6,2024-01-24 14:34:12,0.0
4301,-282,-281,-82,-18,-8,2024-01-24 14:34:12,0.0
4389,-312,-250,-55,-13,15,2024-01-24 14:34:12,0.0
4301,-239,-198,-53,-22,12,2024-01-24 14:34:12,0.0
4343,-282,-255,-48,-4,12,2024-01-24 14:34:12,0.0
4428,-283,-274,-39,58,18,2024-01-24 14:34:12,0.0
4337,-239,-192,-10,-26,-3,2024-01-24 14:34:12,0.0
4339,-219,-153,-27,-23,-18,2024-01-24 14:34:12,0.0
4356,-277,-229,-30,-15,-23,2024-01-24 14:34:12,0.0
4358,-157,-200,-32,-25,-12,2024-01-24 14:34:12,0.0
4337,-222,-231,-66,-28,-8,2024-01-24 14:34:12,0.0
4363,-261,-200,-37,-28,18,2024-01-24 14:34:12,0.0
4352,-240,-272,-36,-17,4,2024-01-24 14:34:12,0.0
4356,-236,-136,-50,-37,6,2024-01-24 14:34:12,0.0
4371,-193,-199,-40,-55,-3,2024-01-24 14:34:12,0.0
4342,-248,-170,-31,-49,5,2024-01-24 14:34:12,0.0
4353,-253,-297,-18,-27,-5,2024-01-24 14:34:13,0.0
4363,-136,-198,-39,18,19,2024-01-24 14:34:13,0.0
4322,-258,-261,-74,33,42,2024-01-24 14:34:13,0.0
4263,-207,-73,-46,-43,53,2024-01-24 14:34:13,0.0
4401,-294,-186,-17,-105,38,2024-01-24 14:34:13,0.0
4351,-258,-283,39,-26,7,2024-01-24 14:34:13,0.0
4358,-218,-272,74,8,29,2024-01-24 14:34:13,0.0
4276,-141,-254,41,-29,57,2024-01-24 14:34:13,0.0
4353,-214,-68,-70,-117,29,2024-01-24 14:34:13,0.0
4379,-302,-246,-61,-88,23,2024-01-24 14:34:13,0.0
4375,-231,-299,-36,-62,25,2024-01-24 14:34:13,0.0
4389,-320,-306,-64,-12,29,2024-01-24 14:34:13,0.0
4276,-411,-170,16,64,18,2024-01-24 14:34:13,0.0
4362,-239,-204,18,-21,16,2024-01-24 14:34:13,0.0
4351,-352,-184,12,-46,23,2024-01-24 14:34:13,0.0
4343,-286,-203,36,-46,11,2024-01-24 14:34:13,0.0
4332,-315,-229,27,-8,8,2024-01-24 14:34:13,0.0
4325,-342,-199,30,74,-3,2024-01-24 14:34:14,0.0
4355,-336,-192,-7,20,-10,2024-01-24 14:34:14,0.0
4388,-352,-158,54,-8,8,2024-01-24 14:34:14,0.0
4292,-277,-164,33,-55,-12,2024-01-24 14:34:14,0.0
4354,-334,-184,2,-29,-5,2024-01-24 14:34:14,0.0
4347,-278,-220,-1,-39,-9,2024-01-24 14:34:14,0.0
4332,-282,-163,-10,37,-14,2024-01-24 14:34:14,0.0
4286,-298,-95,12,-31,5,2024-01-24 14:34:14,0.0
4364,-252,-104,-22,2,-14,2024-01-24 14:34:14,0.0
4296,-289,-179,-26,7,-15,2024-01-24 14:34:14,0.0
4368,-305,-101,-29,-10,-7,2024-01-24 14:34:14,0.0
4350,-276,-82,-24,-29,-16,2024-01-24 14:34:14,0.0
4300,-281,-28,3,-53,2,2024-01-24 14:34:14,0.0
4366,-242,-203,-45,-43,-22,2024-01-24 14:34:14,0.0
4338,-263,-179,-67,-89,2,2024-01-24 14:34:14,0.0
4333,-199,-169,-88,-91,-15,2024-01-24 14:34:14,0.0
4369,-266,-242,-98,-155,-11,2024-01-24 14:34:14,0.0
4297,-180,-114,-47,-120,15,2024-01-24 14:34:14,0.0
4489,-101,-243,-81,-175,7,2024-01-24 14:34:15,0.0
4366,-272,-332,-117,-119,-17,2024-01-24 14:34:15,0.0
4299,-209,-177,-5,-162,-7,2024-01-24 14:34:15,0.0
4404,-94,-373,-94,-76,-17,2024-01-24 14:34:15,0.0
4261,-278,-171,-46,-136,22,2024-01-24 14:34:15,0.0
4361,-169,-392,-64,-88,6,2024-01-24 14:34:15,0.0
4411,-231,-360,-62,-20,1,2024-01-24 14:34:15,0.0
4220,-89,-257,-72,-52,0,2024-01-24 14:34:15,0.0
4401,-158,-509,-113,-91,27,2024-01-24 14:34:15,0.0
4206,-111,-333,-89,-58,58,2024-01-24 14:34:15,0.0
4405,-158,-421,-85,-29,51,2024-01-24 14:34:15,0.0
4240,-22,-457,-144,-103,68,2024-01-24 14:34:15,0.0
4370,-334,-523,-143,-100,84,2024-01-24 14:34:15,0.0
4267,-275,-496,-145,-126,40,2024-01-24 14:34:15,0.0
4378,-299,-466,-127,-79,58,2024-01-24 14:34:15,0.0
4289,-199,-402,-68,-61,37,2024-01-24 14:34:15,0.0
4409,-212,-540,-63,-81,76,2024-01-24 14:34:15,0.0
4265,-277,-509,-91,-35,44,2024-01-24 14:34:16,0.0
4426,-464,-474,-11,-51,47,2024-01-24 14:34:16,0.0
4230,-326,-451,34,-21,21,2024-01-24 14:34:16,0.0
4293,-180,-440,77,-59,48,2024-01-24 14:34:16,
4330,-242,-526,1,-77,62,2024-01-24 14:34:16,0.0
4342,-352,-487,3,-52,34,2024-01-24 14:34:16,0.0
4311,-360,-517,33,-74,21,2024-01-24 14:34:16,0.0
4305,-343,-536,81,-51,13,2024-01-24 14:34:16,0.0
4307,-330,-589,108,-62,21,2024-01-24 14:34:16,0.0
4302,-348,-541,140,-31,8,2024-01-24 14:34:16,0.0
4278,-358,-583,166,-59,-2,2024-01-24 14:34:16,0.0
4323,-262,-594,213,-45,13,2024-01-24 14:34:16,0.0
4337,-353,-563,170,-15,5,2024-01-24 14:34:16,0.0
4331,-342,-551,140,-39,-15,2024-01-24 14:34:16,0.0
4333,-398,-511,136,-58,-14,2024-01-24 14:34:16,0.0
4301,-432,-600,121,-15,-19,2024-01-24 14:34:16,0.0
4268,-492,-563,125,-50,-16,2024-01-24 14:34:16,0.0
4299,-451,-530,120,-12,-14,2024-01-24 14:34:16,0.0
4307,-496,-551,96,-8,-27,2024-01-24 14:34:17,0.0
4260,-391,-545,75,3,-24,2024-01-24 14:34:17,0.0
4338,-494,-525,51,15,12,2024-01-24 14:34:17,0.0
4255,-439,-530,15,-48,13,2024-01-24 14:34:17,0.0
4342,-531,-572,-1,-14,24,2024-01-24 14:34:17,0.0
4247,-485,-602,9,-23,32,2024-01-24 14:34:17,0.0
4300,-478,-462,-12,-39,29,2024-01-24 14:34:17,0.0
